,X,run,trial,startID,goalID,cue,CWhead,CCWhead,feedbackType,goalError,pathDistance,shPathError,startNavTime,endNavTime,navTime,arrowsDispTime,selectTime,selectChoice,selectHead,RT,subID,trialTypeContext,trialTypeNumCon,trialTypeEdgeLen,maze,mazeOrder,landmarkID,goalLM,isCorrect,geCat,hubCat,goalCat,headingCat,newFeedbackType,shortestLen,relPathIneff,percIneff,startlandmark,neuralSimilarity_HPC_bilateral,stim1act_HPC_bilateral,stim2act_HPC_bilateral,V1_HPC_bilateral,IT_HPC_bilateral,neuralSimilarity_HPC_left,stim1act_HPC_left,stim2act_HPC_left,V1_HPC_left,IT_HPC_left,neuralSimilarity_HPC_right,stim1act_HPC_right,stim2act_HPC_right,V1_HPC_right,IT_HPC_right,startfractal,endfractal,neuralSimilarity_HPC_bilateral_fr,stim1act_HPC_bilateral_fr,stim2act_HPC_bilateral_fr,V1_HPC_bilateral_fr,IT_HPC_bilateral_fr
0,31,4,2,15,10,cue14,-43.64169504,136.358305,tooLong,0.971160458,111.7,30.85753529,2438.639,2498.149,59.51,2436.7889999999998,2438.639,DOWN_SELECTION,136.358305,1.85,2,across,2,3,2,2,9,landmark5B,1,correct,notHub,withinComm,0,correctNonSP,80.84246471,0.38169958600000004,38.16995857,12,-0.043686329,-0.029899359,-0.012438379,0.928255547,0.765720062,-0.13423417,-0.01040052,-0.019225802,0.928255547,0.765720062,0.046861513,-0.049398198,-0.0056509559999999995,0.928255547,0.765720062,o,j,0.048133657999999996,0.05342828249999999,-0.17833734399999998,0.915352209,0.70099949
1,32,4,3,10,7,cue11,192.3821459,12.38214594,incorrect,4.435210898999999,241.2,201.34547030000002,2508.999,2616.529,107.53,2505.129,2508.999,UP_SELECTION,192.3821459,3.87,2,within,1,2,2,2,6,landmark12B,1,correct,notHub,inbetween,0,correctNonSP,39.8545297,5.0520096919999995,505.2009692,9,-0.018583743,0.004077166,-0.10679827900000001,0.9039291759999999,0.7208059659999999,-0.059294014000000006,0.012808197,-0.136542017,0.9039291759999999,0.7208059659999999,0.022126528,-0.0046538659999999996,-0.07705454099999999,0.9039291759999999,0.7208059659999999,j,g,0.034104098,0.0248673015,0.1316229115,0.847273479,0.8482732629999999
2,34,4,5,4,1,cue3,265.9941022,85.99410224,correct,2.9167628210000003,42.9,2.9184644289999997,2698.78,2724.453,25.673000000000002,2696.64,2698.78,DOWN_SELECTION,85.99410224,2.14,2,within,1,2,1,1,1,landmark18B,1,correct,notHub,withinComm,1,correctSP,39.98153557,0.072995306,7.299530614,4,0.086001326,0.036347366,0.10476672599999999,0.9153690590000001,0.732666088,0.035698161,0.00760637,0.116546651,0.9153690590000001,0.732666088,0.136304491,0.065088362,0.092986802,0.9153690590000001,0.732666088,d,a,0.08465362774999999,-0.0014433239999999993,0.16993859649999998,0.902290461,0.736852477
3,35,4,6,1,11,cue2,107.54615840000001,-72.45384156,tooLong,1.1657519809999999,102.0,33.7472844,2735.24,2782.24,47.0,2731.46,2735.24,UP_SELECTION,-72.45384156,3.78,2,across,3,3,3,3,7,landmark7B,1,correct,hub,hub,0,correctNonSP,68.2527156,0.49444603200000004,49.4446032,1,0.011756133,-0.010048886,-0.052028025,0.878498483,0.513595695,0.003401485,-0.054744347,-0.03088709,0.878498483,0.513595695,0.020110781,0.034646575,-0.073168959,0.878498483,0.513595695,a,k,-0.039492677250000004,0.05528496649999999,-0.062411507000000005,0.862178126,0.736426817
4,36,4,7,11,3,cue9,207.840948,27.84094798,correct,0.578324483,43.4,-0.39878681,2791.72,2819.59,27.87,2789.22,2791.72,DOWN_SELECTION,27.84094798,2.5,2,across,2,2,1,1,3,landmark4B,1,correct,hub,hub,1,correctSP,43.79878681,0.0,0.0,7,0.023590571,-0.051527101,-0.0016543179999999999,0.917956744,0.523288125,-0.028437287000000002,-0.093554955,0.00833732,0.917956744,0.523288125,0.075618429,-0.009499246999999999,-0.011645957,0.917956744,0.523288125,k,c,0.014619890250000007,-0.1433087825,-0.047477878,0.864934926,0.96514312
5,37,4,8,3,8,cue4,-38.01013454,141.9898655,correct,0.891868462,45.6,1.0718853259999999,2827.8390000000004,2848.24,20.401,2826.573,2827.8390000000004,DOWN_SELECTION,141.9898655,1.266,2,across,3,2,2,2,7,landmark7B,1,correct,hub,hub,1,correctSP,44.52811467,0.024072102,2.407210217,3,0.023590571,-0.10672851400000001,-0.052028025,0.917956744,0.523288125,-0.028437287000000002,-0.172287668,-0.03088709,0.917956744,0.523288125,0.075618429,-0.04116936,-0.073168959,0.917956744,0.523288125,c,h,0.04525056425,0.022777233,-0.044315825999999996,0.94365199,0.809006518
6,38,4,9,8,3,cue9,-23.86064146,156.1393585,correct,0.00795357,48.1,3.5718853260000003,2856.44,2877.548,21.108,2855.24,2856.44,DOWN_SELECTION,-23.86064146,1.2,2,across,3,2,1,1,3,landmark4B,1,correct,hub,hub,1,correctSP,44.52811467,0.08021640599999999,8.021640602,7,0.023590571,-0.051527101,-0.0016543179999999999,0.917956744,0.523288125,-0.028437287000000002,-0.093554955,0.00833732,0.917956744,0.523288125,0.075618429,-0.009499246999999999,-0.011645957,0.917956744,0.523288125,h,c,0.04525056425,-0.0760508875,-0.047477878,0.94365199,0.809006518
7,39,4,10,3,10,cue14,-38.01013454,141.9898655,tooLong,0.697377427,163.5,97.53152688,2886.071,2957.19,71.119,2884.55,2886.071,DOWN_SELECTION,141.9898655,1.521,2,across,2,3,2,2,9,landmark5B,1,correct,notHub,withinComm,0,correctNonSP,65.96847312,1.478456636,147.8456636,3,0.009096146,-0.10672851400000001,-0.012438379,0.9154722890000001,0.8572163629999999,-0.003167659,-0.172287668,-0.019225802,0.9154722890000001,0.8572163629999999,0.02135995,-0.04116936,-0.0056509559999999995,0.9154722890000001,0.8572163629999999,c,j,0.0427036855,0.022777233,-0.17833734399999998,0.8421930479999999,0.782586497
8,40,5,1,10,13,cue22,192.3821459,12.38214594,tooLong,0.844090343,75.7,8.778492845,3002.202,3042.3059999999996,40.104,3000.322,3002.202,DOWN_SELECTION,12.38214594,1.88,2,across,3,3,3,3,3,landmark4B,1,correct,hub,hub,0,correctSP,66.92150716,0.131175958,13.11759585,9,0.009096146,0.004077166,-0.0016543179999999999,0.9154722890000001,0.8572163629999999,-0.003167659,0.012808197,0.00833732,0.9154722890000001,0.8572163629999999,0.02135995,-0.0046538659999999996,-0.011645957,0.9154722890000001,0.8572163629999999,j,m,0.1054082455,0.0248673015,-0.0346191525,0.85458178,0.7123568259999999
9,41,5,2,13,11,cue2,102.7811052,-77.21889482,tooLong,1.720927754,67.5,23.87667916,3055.3520000000003,3093.302,37.95,3049.285,3055.3520000000003,UP_SELECTION,-77.21889482,6.067,2,within,1,2,3,3,7,landmark7B,1,correct,hub,hub,0,correctNonSP,43.62332084,0.547337495,54.73374952,3,0.023590571,-0.10672851400000001,-0.052028025,0.917956744,0.523288125,-0.028437287000000002,-0.172287668,-0.03088709,0.917956744,0.523288125,0.075618429,-0.04116936,-0.073168959,0.917956744,0.523288125,m,k,0.10342405674999999,-0.093488149,-0.062411507000000005,0.913704293,0.9767970090000001
10,42,5,3,11,6,cue17,207.840948,27.84094798,incorrect,6.536237308,163.4,119.6940567,3104.9320000000002,3182.482,77.55,3100.2659999999996,3104.9320000000002,DOWN_SELECTION,27.84094798,4.666,2,across,2,2,2,2,5,landmark13B,1,correct,hub,hub,0,correctNonSP,43.705943299999994,2.738621974,273.8621974,7,-0.020389087,-0.051527101,0.053254725,0.850642166,0.495848697,-0.091074388,-0.093554955,0.085394871,0.850642166,0.495848697,0.050296215,-0.009499246999999999,0.021114578999999998,0.850642166,0.495848697,k,f,0.048194001,-0.1433087825,-0.22388001950000003,0.911064037,0.935606755
11,48,5,9,4,1,cue3,265.9941022,85.99410224,tooLong,3.2164580369999998,57.6,17.61846443,3615.673,3643.243,27.57,3612.4429999999998,3615.673,UP_SELECTION,265.9941022,3.23,2,within,1,2,1,1,1,landmark18B,1,correct,notHub,withinComm,0,correctSP,39.98153557,0.440665026,44.06650265,4,0.086001326,0.036347366,0.10476672599999999,0.9153690590000001,0.732666088,0.035698161,0.00760637,0.116546651,0.9153690590000001,0.732666088,0.136304491,0.065088362,0.092986802,0.9153690590000001,0.732666088,d,a,0.08465362774999999,-0.0014433239999999993,0.16993859649999998,0.902290461,0.736852477
12,51,6,2,5,2,cue13,217.7571136,37.7571136,tooLong,1.045727149,77.3,34.76717675,3779.683,3822.467,42.784,3777.292,3779.683,UP_SELECTION,217.7571136,2.391,2,within,1,2,1,1,2,landmark6B,1,correct,notHub,withinComm,0,correctNonSP,42.53282325,0.817419915,81.74199146,5,-0.018631345,0.082419588,-0.178877583,0.9093772990000001,0.7190416940000001,0.011055305,0.063250523,-0.192210701,0.9093772990000001,0.7190416940000001,-0.048317994,0.101588653,-0.165544465,0.9093772990000001,0.7190416940000001,e,b,0.0005847485000000027,-0.061069323499999995,-0.0459305045,0.905392656,0.798692868
13,52,6,3,2,8,cue4,80.00899573,260.0089957,tooLong,1.5132355080000002,137.6,67.22053227,3831.953,3890.813,58.86,3829.413,3831.953,DOWN_SELECTION,260.0089957,2.54,2,across,3,3,2,2,7,landmark7B,1,correct,hub,hub,0,correctNonSP,70.37946773,0.9551156670000001,95.51156671,2,0.059134814,-0.013069202,-0.052028025,0.90188007,0.6390928229999999,0.059897057000000004,-0.042683415999999995,-0.03088709,0.90188007,0.6390928229999999,0.058372572000000005,0.016545011999999998,-0.073168959,0.90188007,0.6390928229999999,b,h,0.0035569959999999998,-0.0151416585,-0.044315825999999996,0.915601381,0.756751465
14,54,6,5,6,14,cue16,72.37272871,252.3727287,correct,1.2021652109999998,68.5,2.279423935,4006.7140000000004,4041.2140000000004,34.5,3999.2329999999997,4006.7140000000004,DOWN_SELECTION,252.3727287,7.481,2,across,3,3,3,3,11,landmark1B,1,correct,notHub,withinComm,1,correctSP,66.22057607,0.034421687,3.442168689,5,0.024929712000000003,0.082419588,-0.015825629,0.9378685929999999,0.67701736,-0.025929783999999997,0.063250523,-0.034489136000000004,0.9378685929999999,0.67701736,0.075789207,0.101588653,0.002837878,0.9378685929999999,0.67701736,f,n,-0.0011190182500000023,-0.051302512999999994,-0.192339278,0.850761476,0.863283537
15,55,6,6,14,12,cue21,-12.39719272,167.6028073,correct,1.2820034359999999,41.6,1.281968397,4057.554,4072.238,14.684000000000001,4048.1940000000004,4057.554,DOWN_SELECTION,-12.39719272,9.36,2,within,1,2,3,3,10,landmark11B,1,correct,notHub,inbetween,1,correctSP,40.3180316,0.031796403,3.17964034,11,-0.024801462000000003,-0.139333095,0.124430835,0.933001357,0.8134502029999999,0.0640836,-0.11763923300000001,0.12393083,0.933001357,0.8134502029999999,-0.113686525,-0.161026957,0.124930839,0.933001357,0.8134502029999999,n,l,-0.04381607675000001,0.0734048455,0.009002745999999999,0.963342625,0.8616427409999999
16,56,6,7,12,5,cue18,145.579687,-34.42031302,tooLong,0.33743785600000004,110.1,60.00592474,4081.3340000000003,4129.003,47.669,4079.197,4081.3340000000003,UP_SELECTION,145.579687,2.137,2,across,3,3,1,1,5,landmark13B,1,correct,hub,hub,0,correctNonSP,50.09407526,1.1978647059999998,119.7864706,10,0.072300543,-0.145263537,0.053254725,0.8724096709999999,0.721272403,0.009279509,-0.178990305,0.085394871,0.8724096709999999,0.721272403,0.135321576,-0.11153677,0.021114578999999998,0.8724096709999999,0.721272403,l,e,-0.01421607800000001,-0.012061512000000002,-0.0626778125,0.9232818770000001,0.920184179
17,58,6,9,15,13,cue22,-43.64169504,136.358305,correct,0.224211418,43.4,-0.224117237,4229.434,4247.464,18.03,4227.794,4229.434,UP_SELECTION,-43.64169504,1.64,2,within,1,2,3,3,3,landmark4B,1,correct,hub,hub,1,correctSP,43.62411724,0.0,0.0,12,-0.021260308999999998,-0.029899359,-0.0016543179999999999,0.923145232,0.462799817,-0.028031531000000002,-0.01040052,0.00833732,0.923145232,0.462799817,-0.014489088,-0.049398198,-0.011645957,0.923145232,0.462799817,o,m,0.100837763,0.05342828249999999,-0.0346191525,0.92514777,0.692362989
18,61,7,2,2,10,cue14,80.00899573,260.0089957,tooLong,1.750373256,182.6,108.85838419999999,4457.829000000001,4538.583,80.75399999999999,4456.939,4457.829000000001,DOWN_SELECTION,260.0089957,0.89,2,across,2,3,2,2,9,landmark5B,1,correct,notHub,withinComm,0,correctNonSP,73.74161579999999,1.476213709,147.62137090000002,2,0.0016411429999999999,-0.013069202,-0.012438379,0.92522673,0.83812108,0.07274194,-0.042683415999999995,-0.019225802,0.92522673,0.83812108,-0.069459655,0.016545011999999998,-0.0056509559999999995,0.92522673,0.83812108,b,j,0.0721933415,-0.0151416585,-0.17833734399999998,0.891982862,0.9011300590000001
19,62,7,3,10,7,cue11,192.3821459,12.38214594,tooLong,3.6251095789999996,183.8,143.9454703,4547.759,4630.629,82.87,4545.539000000001,4547.759,DOWN_SELECTION,12.38214594,2.22,2,within,1,2,2,2,6,landmark12B,1,correct,notHub,inbetween,0,correctNonSP,39.8545297,3.611771896,361.1771896,9,-0.018583743,0.004077166,-0.10679827900000001,0.9039291759999999,0.7208059659999999,-0.059294014000000006,0.012808197,-0.136542017,0.9039291759999999,0.7208059659999999,0.022126528,-0.0046538659999999996,-0.07705454099999999,0.9039291759999999,0.7208059659999999,j,g,0.034104098,0.0248673015,0.1316229115,0.847273479,0.8482732629999999
20,63,7,4,7,4,cue8,35.15346303,215.153463,correct,0.649143583,26.1,4.493536677,4641.539000000001,4652.339,10.8,4637.629,4641.539000000001,DOWN_SELECTION,35.15346303,3.91,2,across,2,2,1,1,4,landmark2B,1,correct,notHub,inbetween,1,correctSP,21.60646332,0.20797187399999997,20.79718744,6,-0.014101126,0.021045602000000004,-0.002270003,0.9402444440000001,0.7412605040000001,-0.02196042,0.001861014,-0.009921576,0.9402444440000001,0.7412605040000001,-0.006241831,0.040230189,0.005381571,0.9402444440000001,0.7412605040000001,g,d,0.06910451125,0.0335752155,-0.0758194035,0.9573833979999999,0.8078277559999999
21,64,7,5,4,1,cue3,265.9941022,85.99410224,tooLong,2.417440607,77.4,37.41846443,4661.289000000001,4695.619000000001,34.33,4659.3,4661.289000000001,UP_SELECTION,265.9941022,1.989,2,within,1,2,1,1,1,landmark18B,1,correct,notHub,withinComm,0,correctNonSP,39.98153557,0.9358936290000001,93.58936293,4,0.086001326,0.036347366,0.10476672599999999,0.9153690590000001,0.732666088,0.035698161,0.00760637,0.116546651,0.9153690590000001,0.732666088,0.136304491,0.065088362,0.092986802,0.9153690590000001,0.732666088,d,a,0.08465362774999999,-0.0014433239999999993,0.16993859649999998,0.902290461,0.736852477
22,65,7,6,1,11,cue2,107.54615840000001,-72.45384156,incorrect,4.468867979,76.4,8.147284396,4704.549,4749.063,44.513999999999996,4702.589,4704.549,DOWN_SELECTION,107.54615840000001,1.96,2,across,3,3,3,3,7,landmark7B,1,correct,hub,hub,0,correctSP,68.2527156,0.119369381,11.93693807,1,0.011756133,-0.010048886,-0.052028025,0.878498483,0.513595695,0.003401485,-0.054744347,-0.03088709,0.878498483,0.513595695,0.020110781,0.034646575,-0.073168959,0.878498483,0.513595695,a,k,-0.039492677250000004,0.05528496649999999,-0.062411507000000005,0.862178126,0.736426817
23,66,7,7,11,3,cue9,207.840948,27.84094798,tooLong,0.8527631920000001,162.7,118.9012132,4764.929,4836.7390000000005,71.81,4762.54,4764.929,DOWN_SELECTION,27.84094798,2.3890000000000002,2,across,2,2,1,1,3,landmark4B,1,correct,hub,hub,0,correctNonSP,43.798786799999995,2.714714765,271.4714765,7,0.023590571,-0.051527101,-0.0016543179999999999,0.917956744,0.523288125,-0.028437287000000002,-0.093554955,0.00833732,0.917956744,0.523288125,0.075618429,-0.009499246999999999,-0.011645957,0.917956744,0.523288125,k,c,0.014619890250000007,-0.1433087825,-0.047477878,0.864934926,0.96514312
24,67,7,8,3,8,cue4,-38.01013454,141.9898655,tooLong,0.270874448,99.9,55.37188533,4845.71,4897.454000000001,51.744,4843.71,4845.71,DOWN_SELECTION,141.9898655,2.0,2,across,3,2,2,2,7,landmark7B,1,correct,hub,hub,0,correctNonSP,44.52811467,1.243526382,124.3526382,3,0.023590571,-0.10672851400000001,-0.052028025,0.917956744,0.523288125,-0.028437287000000002,-0.172287668,-0.03088709,0.917956744,0.523288125,0.075618429,-0.04116936,-0.073168959,0.917956744,0.523288125,c,h,0.04525056425,0.022777233,-0.044315825999999996,0.94365199,0.809006518
25,68,7,9,8,6,cue17,-23.86064146,156.1393585,tooLong,3.727645252,84.7,42.34812881,4909.31,4952.39,43.08,4904.46,4909.31,UP_SELECTION,156.1393585,4.85,2,within,1,2,2,2,5,landmark13B,1,correct,hub,hub,0,correctNonSP,42.35187119,0.999911636,99.9911636,7,-0.020389087,-0.051527101,0.053254725,0.850642166,0.495848697,-0.091074388,-0.093554955,0.085394871,0.850642166,0.495848697,0.050296215,-0.009499246999999999,0.021114578999999998,0.850642166,0.495848697,h,f,0.0581750915,-0.0760508875,-0.22388001950000003,0.922706405,0.949595858
26,31,4,2,9,4,cue11,230.7250954,50.72509545,correct,0.605057002,74.0,6.104840512000001,1492.035,1553.0379999999998,61.00299978,1490.855,1492.035,UP_SELECTION,230.7250954,1.18000007,3,across,2,3,1,2,4,landmark17B,1,correct,notHub,inbetween,1,correctSP,67.89515949,0.08991569599999999,8.991569587999999,8,0.042714170999999995,0.175123017,-0.071571415,0.886243294,0.801206594,0.005019976,0.157617242,-0.043949065999999995,0.886243294,0.801206594,0.080408366,0.19262879100000002,-0.099193764,0.886243294,0.801206594,i,d,0.059783593499999996,-0.084532992,-0.112941755,0.857131924,0.694796581
27,32,4,3,4,1,cue14,268.7228977,88.72289775,correct,0.093137106,42.3,0.093075416,1561.185,1588.156,26.97099996,1560.046,1561.185,DOWN_SELECTION,88.72289775,1.13899994,3,within,1,2,1,2,1,landmark13B,1,correct,notHub,withinComm,1,correctSP,42.20692458,0.002205217,0.220521673,4,0.021288197999999998,-0.07422734,0.071906017,0.856965612,0.607240869,0.096001679,-0.08787212900000001,0.06483971200000001,0.856965612,0.607240869,-0.053425283,-0.060582551,0.078972321,0.856965612,0.607240869,d,a,-0.16046764174999997,0.0246423275,-0.027715941,0.847273479,0.8482732629999999
28,33,4,4,1,11,cue4,107.54615840000001,-72.45384156,correct,3.55234372,67.1,-2.649026053,1598.096,1628.445,30.34899997,1595.1660000000002,1598.096,DOWN_SELECTION,107.54615840000001,2.93000007,3,across,3,3,3,1,7,landmark2B,1,correct,hub,hub,1,correctSP,69.74902605,0.0,0.0,1,-0.096711373,0.091455215,-0.21485805300000002,0.9306056690000001,0.810697435,-0.16226055,0.10223586400000001,-0.180500875,0.9306056690000001,0.810697435,-0.031162196,0.080674565,-0.249215231,0.9306056690000001,0.810697435,a,k,0.09558618550000002,0.034675129,0.016596998,0.9320254170000001,0.8483814590000001
29,34,4,5,11,14,cue12,219.3365784,39.33657845,correct,2.8822708930000003,39.3,-2.8837114589999997,1636.865,1657.9089999999999,21.04399991,1635.425,1636.865,DOWN_SELECTION,219.3365784,1.44000006,3,within,1,2,3,1,11,landmark1B,1,correct,notHub,withinComm,1,correctSP,42.18371146,0.0,0.0,7,0.0240351,-0.05971648,-0.008945534,0.933264387,0.8210064140000001,0.022406488999999998,-0.051326498,0.008797719,0.933264387,0.8210064140000001,0.025663711000000002,-0.06810646299999999,-0.026688787999999998,0.933264387,0.8210064140000001,k,n,0.0022354737499999996,-0.13309061049999998,-0.061647263499999994,0.921572009,0.8940287029999999
30,35,4,6,14,7,cue13,-16.27368179,163.72631819999998,correct,2.2378430430000003,78.5,7.86166842,1665.495,1712.596,47.10100007,1664.896,1665.495,DOWN_SELECTION,163.72631819999998,0.59899998,3,across,2,3,2,3,6,landmark4B,1,correct,notHub,inbetween,1,correctSP,70.63833158,0.11129465,11.12946504,11,-0.149884303,0.061807928,0.015714192,0.91828909,0.7330616809999999,-0.17492227600000002,0.06323778,-0.010434364,0.91828909,0.7330616809999999,-0.12484633099999999,0.060378075999999996,0.041862748,0.91828909,0.7330616809999999,n,g,-0.017022629249999987,-0.036293192,-0.188082168,0.9328500279999999,0.869165345
31,36,4,7,7,12,cue15,35.15346303,215.153463,incorrect,4.068730495,36.6,-0.082690764,1721.656,1739.246,17.59000015,1719.595,1721.656,DOWN_SELECTION,215.153463,2.06099987,3,across,2,2,3,1,10,landmark12B,1,correct,notHub,inbetween,0,correctSP,36.68269076,0.0,0.0,6,-0.037479642,-0.040651115,-0.076345275,0.903836546,0.654733317,-0.045589914,-0.031658328,-0.074086843,0.903836546,0.654733317,-0.02936937,-0.049643901,-0.078603706,0.903836546,0.654733317,g,l,-0.08425432975,0.061952331,-0.0862719225,0.907899545,0.94538493
32,38,4,9,6,8,cue18,76.99190909999999,256.9919091,correct,1.4335639340000002,43.8,-1.435123928,1785.156,1807.616,22.46000004,1781.455,1785.156,UP_SELECTION,76.99190909999999,3.70099998,3,within,1,2,2,3,7,landmark2B,1,correct,hub,hub,1,correctSP,45.23512393,0.0,0.0,5,0.058562772,0.021722564,-0.21485805300000002,0.9390599140000001,0.7031066840000001,0.110058848,0.012774057,-0.180500875,0.9390599140000001,0.7031066840000001,0.007066695,0.030671071,-0.249215231,0.9390599140000001,0.7031066840000001,f,h,-0.05354928625,-0.082710222,0.046684935000000004,0.921033313,0.9335369040000001
33,39,4,10,8,2,cue10,-35.91964864,144.08035139999998,correct,1.353012835,74.7,6.004589949,1815.486,1845.506,30.01999998,1814.606,1815.486,DOWN_SELECTION,-35.91964864,0.88000011,3,across,3,3,1,2,2,landmark14B,1,correct,notHub,withinComm,1,correctSP,68.69541005,0.087408896,8.740889594,7,0.013606793,-0.05971648,-0.089001181,0.8848720940000001,0.7292946640000001,0.10454498699999999,-0.051326498,-0.046652955,0.8848720940000001,0.7292946640000001,-0.077331401,-0.06810646299999999,-0.131349406,0.8848720940000001,0.7292946640000001,h,b,0.10440583375,-0.00018958600000000027,-0.0830569455,0.951146788,0.8131319490000001
34,40,5,1,2,4,cue11,72.74861673,252.74861669999999,correct,2.05098415,43.6,-2.02911364,2170.938,2194.422,23.48399997,2164.3179999999998,2170.938,UP_SELECTION,72.74861673,6.61999988,3,within,1,2,1,2,4,landmark17B,1,correct,notHub,inbetween,1,correctSP,45.62911364,0.0,0.0,2,0.08214422,0.022045401000000003,-0.071571415,0.891229952,0.541143946,0.140600271,0.027932156,-0.043949065999999995,0.891229952,0.541143946,0.023688168,0.016158645,-0.099193764,0.891229952,0.541143946,b,d,0.0538963445,-0.050982322999999996,-0.112941755,0.87202383,0.708669291
35,41,5,2,4,1,cue14,268.7228977,88.72289775,correct,0.593128749,42.8,0.593075416,2205.748,2221.178,15.43000006,2201.408,2205.748,UP_SELECTION,88.72289775,4.33999992,3,within,1,2,1,2,1,landmark13B,1,correct,notHub,withinComm,1,correctSP,42.20692458,0.014051613999999999,1.405161409,4,0.021288197999999998,-0.07422734,0.071906017,0.856965612,0.607240869,0.096001679,-0.08787212900000001,0.06483971200000001,0.856965612,0.607240869,-0.053425283,-0.060582551,0.078972321,0.856965612,0.607240869,d,a,-0.16046764174999997,0.0246423275,-0.027715941,0.847273479,0.8482732629999999
36,42,5,3,1,11,cue4,107.54615840000001,-72.45384156,tooLong,3.946453884,82.1,12.35097395,2249.988,2298.368,48.38000011,2228.17,2249.988,DOWN_SELECTION,107.54615840000001,21.81799984,3,across,3,3,3,1,7,landmark2B,1,correct,hub,hub,0,correctSP,69.74902605,0.177077368,17.70773679,1,-0.096711373,0.091455215,-0.21485805300000002,0.9306056690000001,0.810697435,-0.16226055,0.10223586400000001,-0.180500875,0.9306056690000001,0.810697435,-0.031162196,0.080674565,-0.249215231,0.9306056690000001,0.810697435,a,k,0.09558618550000002,0.034675129,0.016596998,0.9320254170000001,0.8483814590000001
37,43,5,4,11,5,cue7,219.3365784,39.33657845,tooLong,2.614045734,84.6,31.855274800000004,2307.688,2341.9120000000003,34.22399998,2305.368,2307.688,DOWN_SELECTION,39.33657845,2.31999993,3,across,3,2,1,2,5,landmark8B,1,correct,hub,hub,0,correctNonSP,52.7447252,0.603951858,60.39518582,7,0.058562772,-0.05971648,0.051957407000000004,0.9390599140000001,0.7031066840000001,0.110058848,-0.051326498,0.082972379,0.9390599140000001,0.7031066840000001,0.007066695,-0.06810646299999999,0.020942434,0.9390599140000001,0.7031066840000001,k,e,-0.039286092499999994,-0.13309061049999998,-0.008174465,0.912853169,0.933186142
38,44,5,5,5,3,cue20,197.71758280000003,17.71758282,correct,2.052228745,48.7,-2.0554228009999997,2354.788,2372.298,17.50999999,2348.8979999999997,2354.788,DOWN_SELECTION,197.71758280000003,5.88999987,3,within,1,2,1,2,3,landmark3B,1,correct,hub,hub,1,correctSP,50.75542279999999,0.0,0.0,5,0.09966319400000001,0.021722564,-0.086262705,0.878962617,0.550778859,0.069409737,0.012774057,-0.040525877,0.878962617,0.550778859,0.129916652,0.030671071,-0.131999533,0.878962617,0.550778859,e,c,-0.013604031249999999,0.000790008499999998,-0.046560381000000005,0.9098529609999999,0.8427667959999999
39,45,5,6,3,9,cue3,-25.46270111,154.5372989,tooLong,2.470724863,92.0,23.01018234,2380.018,2417.292,37.27400017,2379.282,2380.018,DOWN_SELECTION,154.5372989,0.73599983,3,across,3,3,2,3,8,landmark5B,1,correct,notHub,withinComm,0,correctNonSP,68.98981766,0.333530123,33.35301226,3,0.019864309,-0.190797647,-0.42762087299999996,0.923530838,0.708810268,0.09775061,-0.201031682,-0.345712976,0.923530838,0.708810268,-0.058021992,-0.180563611,-0.509528769,0.923530838,0.708810268,c,i,0.004078281499999996,-0.095341762,-0.0603692525,0.912689112,0.884844234
40,46,5,7,9,15,cue16,230.7250954,50.72509545,correct,0.38028255899999996,59.5,6.5786729070000005,2425.508,2456.3179999999998,30.81000018,2424.278,2425.508,UP_SELECTION,230.7250954,1.23000002,3,across,2,2,3,1,12,landmark10B,1,correct,notHub,withinComm,1,correctSP,52.92132709,0.12431043,12.43104296,8,-0.201130644,0.175123017,0.023773737000000003,0.9447483440000001,0.834677825,-0.245381997,0.157617242,0.038361426000000004,0.9447483440000001,0.834677825,-0.156879291,0.19262879100000002,0.009186048,0.9447483440000001,0.834677825,i,o,0.02094281274999999,-0.084532992,-0.114808781,0.978265455,0.834421272
41,47,5,8,15,13,cue2,-47.06357014,132.9364299,correct,0.36360856700000005,42.3,-0.36367273,2464.492,2479.882,15.39000011,2463.3089999999997,2464.492,UP_SELECTION,-47.06357014,1.18299984,3,within,1,2,3,1,3,landmark3B,1,correct,hub,hub,1,correctSP,42.66367273,0.0,0.0,12,-0.14158949699999998,0.011135485,-0.086262705,0.91960781,0.650386852,-0.17785504600000002,-0.0031082559999999998,-0.040525877,0.91960781,0.650386852,-0.105323949,0.025379226,-0.131999533,0.91960781,0.650386852,o,m,-0.0036361810000000022,-0.0326316875,0.102194586,0.93872793,0.8523556059999999
42,48,5,9,13,7,cue13,89.14108018,269.1410802,correct,1.7364510869999998,58.6,4.61886716,2487.699,2524.3289999999997,36.63000012,2486.849,2487.699,UP_SELECTION,89.14108018,0.8499999,3,across,3,3,2,3,6,landmark4B,1,correct,notHub,inbetween,1,correctSP,53.98113284,0.085564473,8.556447256,3,0.021574462000000003,-0.190797647,0.015714192,0.9686012140000001,0.637361822,0.01606025,-0.201031682,-0.010434364,0.9686012140000001,0.637361822,0.027088674,-0.180563611,0.041862748,0.9686012140000001,0.637361822,m,g,-0.1205421535,-0.061783750500000005,-0.188082168,0.895989129,0.87371833
43,49,5,10,7,4,cue11,35.15346303,215.153463,correct,1.011307129,26.9,1.8010580109999998,2535.609,2562.798,27.18899989,2531.303,2535.609,DOWN_SELECTION,215.153463,4.306,3,across,2,2,1,2,4,landmark17B,1,correct,notHub,inbetween,1,correctSP,25.09894199,0.071758324,7.175832400000001,6,0.037864828999999996,-0.040651115,-0.071571415,0.888145955,0.7015368009999999,0.038341649,-0.031658328,-0.043949065999999995,0.888145955,0.7015368009999999,0.03738801,-0.049643901,-0.099193764,0.888145955,0.7015368009999999,g,d,-0.20425113075,0.061952331,-0.112941755,0.88138586,0.806817509
44,50,6,1,4,1,cue14,268.7228977,88.72289775,correct,0.664681665,42.8,0.593075416,2597.0789999999997,2615.322,18.24300003,2587.989,2597.0789999999997,DOWN_SELECTION,88.72289775,9.08999992,3,within,1,2,1,2,1,landmark13B,1,correct,notHub,withinComm,1,correctSP,42.20692458,0.014051613999999999,1.405161409,4,0.021288197999999998,-0.07422734,0.071906017,0.856965612,0.607240869,0.096001679,-0.08787212900000001,0.06483971200000001,0.856965612,0.607240869,-0.053425283,-0.060582551,0.078972321,0.856965612,0.607240869,d,a,-0.16046764174999997,0.0246423275,-0.027715941,0.847273479,0.8482732629999999
45,51,6,2,1,11,cue4,107.54615840000001,-72.45384156,incorrect,4.2012141110000005,92.4,22.65097395,2638.6090000000004,2680.599,41.99000001,2622.288,2638.6090000000004,UP_SELECTION,-72.45384156,16.3210001,3,across,3,3,3,1,7,landmark2B,1,correct,hub,hub,0,correctNonSP,69.74902605,0.324749681,32.47496808,1,-0.096711373,0.091455215,-0.21485805300000002,0.9306056690000001,0.810697435,-0.16226055,0.10223586400000001,-0.180500875,0.9306056690000001,0.810697435,-0.031162196,0.080674565,-0.249215231,0.9306056690000001,0.810697435,a,k,0.09558618550000002,0.034675129,0.016596998,0.9320254170000001,0.8483814590000001
46,52,6,3,11,5,cue7,219.3365784,39.33657845,correct,2.239997949,50.5,-2.244725205,2697.239,2723.829,26.58999992,2694.0890000000004,2697.239,UP_SELECTION,219.3365784,3.15000009,3,across,3,2,1,2,5,landmark8B,1,correct,hub,hub,1,correctSP,52.7447252,0.0,0.0,7,0.058562772,-0.05971648,0.051957407000000004,0.9390599140000001,0.7031066840000001,0.110058848,-0.051326498,0.082972379,0.9390599140000001,0.7031066840000001,0.007066695,-0.06810646299999999,0.020942434,0.9390599140000001,0.7031066840000001,k,e,-0.039286092499999994,-0.13309061049999998,-0.008174465,0.912853169,0.933186142
47,53,6,4,5,2,cue10,197.71758280000003,17.71758282,correct,0.631681034,42.8,0.6319421,2737.009,2753.413,16.40399981,2730.7990000000004,2737.009,UP_SELECTION,17.71758282,6.21000004,3,within,1,2,1,2,2,landmark14B,1,correct,notHub,withinComm,1,correctSP,42.168057899999994,0.014986275,1.498627472,5,0.039948523,0.021722564,-0.089001181,0.8710427759999999,0.434722195,0.068583246,0.012774057,-0.046652955,0.8710427759999999,0.434722195,0.011313799,0.030671071,-0.131349406,0.8710427759999999,0.434722195,e,b,0.013309663500000003,0.000790008499999998,-0.0830569455,0.8951357190000001,0.887625598
48,54,6,5,2,8,cue18,72.74861673,252.74861669999999,tooLong,0.78393207,94.7,26.00458995,2777.388,2840.3990000000003,63.01099992,2760.4190000000003,2777.388,UP_SELECTION,252.74861669999999,16.969000100000002,3,across,3,3,2,3,7,landmark2B,1,correct,hub,hub,0,correctNonSP,68.69541005,0.37854916299999997,37.85491626,2,0.013606793,0.022045401000000003,-0.21485805300000002,0.8848720940000001,0.7292946640000001,0.10454498699999999,0.027932156,-0.180500875,0.8848720940000001,0.7292946640000001,-0.077331401,0.016158645,-0.249215231,0.8848720940000001,0.7292946640000001,b,h,0.10440583375,-0.050982322999999996,0.046684935000000004,0.951146788,0.8131319490000001
49,55,6,6,8,6,cue17,-35.91964864,144.08035139999998,correct,0.335162697,44.9,-0.335123928,2855.5190000000002,2871.579,16.05999995,2847.373,2855.5190000000002,DOWN_SELECTION,-35.91964864,8.14600014,3,within,1,2,2,3,5,landmark8B,1,correct,hub,hub,1,correctSP,45.23512393,0.0,0.0,7,0.058562772,-0.05971648,0.051957407000000004,0.9390599140000001,0.7031066840000001,0.110058848,-0.051326498,0.082972379,0.9390599140000001,0.7031066840000001,0.007066695,-0.06810646299999999,0.020942434,0.9390599140000001,0.7031066840000001,h,f,-0.053549286249999994,-0.00018958600000000027,0.0665627025,0.921033313,0.9335369040000001
50,56,6,7,6,12,cue15,76.99190909999999,256.9919091,correct,0.981142121,56.3,4.974871974,2879.6690000000003,2926.143,46.47399998,2878.558,2879.6690000000003,DOWN_SELECTION,256.9919091,1.11099982,3,across,3,3,3,1,10,landmark12B,1,correct,notHub,inbetween,1,correctSP,51.32512803,0.096928584,9.692858381,5,0.030563927999999997,0.021722564,-0.076345275,0.902857925,0.486255035,0.029699501,0.012774057,-0.074086843,0.902857925,0.486255035,0.031428354,0.030671071,-0.078603706,0.902857925,0.486255035,f,l,-0.0627230625,-0.082710222,-0.0862719225,0.889629545,0.922919382
51,57,6,8,12,14,cue12,145.579687,-34.42031302,correct,0.17081192,41.5,-0.170831515,2944.0290000000005,2962.139,18.1099999,2933.159,2944.0290000000005,UP_SELECTION,145.579687,10.87000012,3,within,1,2,3,1,11,landmark1B,1,correct,notHub,withinComm,1,correctSP,41.67083152,0.0,0.0,10,0.034733839,0.11046209800000001,-0.008945534,0.9404825790000001,0.643636966,0.028792755,0.086958225,0.008797719,0.9404825790000001,0.643636966,0.040674924,0.133965971,-0.026688787999999998,0.9404825790000001,0.643636966,l,n,-0.0063851779999999966,0.0244805915,-0.061647263499999994,0.9103929270000001,0.8987649240000001
52,58,6,9,14,10,cue6,-16.27368179,163.72631819999998,correct,0.629569133,94.3,0.732530131,2970.2990000000004,3003.228,32.92899991,2969.132,2970.2990000000004,DOWN_SELECTION,-16.27368179,1.16700005,3,across,2,4,2,3,9,landmark15B,1,correct,notHub,withinComm,1,correctSP,93.56746987,0.007828898,0.78288975,11,0.079234318,0.061807928,-0.06878021599999999,0.892124265,0.8083717709999999,0.069728773,0.06323778,-0.06086512400000001,0.892124265,0.8083717709999999,0.088739863,0.060378075999999996,-0.076695308,0.892124265,0.8083717709999999,n,j,0.12968395049999998,-0.036293192,0.0106086785,0.9176446340000001,0.954871701
53,60,7,1,3,9,cue3,-25.46270111,154.5372989,tooLong,2.389828192,92.1,23.11018234,3083.38,3119.89,36.50999999,3081.22,3083.38,DOWN_SELECTION,154.5372989,2.15999985,3,across,3,3,2,3,8,landmark5B,1,correct,notHub,withinComm,0,correctNonSP,68.98981766,0.334979612,33.49796119,3,0.019864309,-0.190797647,-0.42762087299999996,0.923530838,0.708810268,0.09775061,-0.201031682,-0.345712976,0.923530838,0.708810268,-0.058021992,-0.180563611,-0.509528769,0.923530838,0.708810268,c,i,0.004078281499999996,-0.095341762,-0.0603692525,0.912689112,0.884844234
54,61,7,2,9,7,cue13,230.7250954,50.72509545,correct,2.710780805,43.6,-2.7114054810000003,3128.9829999999997,3145.1090000000004,16.12599993,3126.8709999999996,3128.9829999999997,UP_SELECTION,230.7250954,2.11199999,3,within,1,2,2,3,6,landmark4B,1,correct,notHub,inbetween,1,correctSP,46.31140548,0.0,0.0,8,0.08801207400000001,0.175123017,0.015714192,0.9154722890000001,0.8572163629999999,0.126397595,0.157617242,-0.010434364,0.9154722890000001,0.8572163629999999,0.049626554,0.19262879100000002,0.041862748,0.9154722890000001,0.8572163629999999,i,g,-0.11731591999999999,-0.084532992,-0.188082168,0.9376918879999999,0.844342047
55,62,7,3,7,1,cue14,35.15346303,215.153463,correct,0.284840513,42.5,0.28484604,3152.87,3178.708,25.83800005,3152.12,3152.87,UP_SELECTION,35.15346303,0.75,3,across,2,2,1,2,1,landmark13B,1,correct,notHub,withinComm,1,correctSP,42.21515396,0.006747483,0.674748316,6,-0.006845932,-0.040651115,0.071906017,0.939366714,0.5942872770000001,-0.023455782999999997,-0.031658328,0.06483971200000001,0.939366714,0.5942872770000001,0.009763919,-0.049643901,0.078972321,0.939366714,0.5942872770000001,g,a,-0.14488402274999998,0.061952331,-0.027715941,0.891982862,0.9011300590000001
56,63,7,4,1,8,cue18,107.54615840000001,-72.45384156,correct,0.276793606,75.2,7.044052057999999,3187.139,3214.15,27.01099992,3185.72,3187.139,DOWN_SELECTION,107.54615840000001,1.41899991,3,across,2,3,2,3,7,landmark2B,1,correct,hub,hub,1,correctSP,68.15594794,0.10335197800000001,10.33519784,1,-0.096711373,0.091455215,-0.21485805300000002,0.9306056690000001,0.810697435,-0.16226055,0.10223586400000001,-0.180500875,0.9306056690000001,0.810697435,-0.031162196,0.080674565,-0.249215231,0.9306056690000001,0.810697435,a,h,0.001808422500000005,0.034675129,0.046684935000000004,0.881775645,0.741024558
57,64,7,5,8,2,cue10,-35.91964864,144.08035139999998,correct,1.3744050369999998,67.5,-1.1954100509999999,3222.37,3247.039,24.66900014,3221.17,3222.37,DOWN_SELECTION,-35.91964864,1.19999981,3,across,3,3,1,2,2,landmark14B,1,correct,notHub,withinComm,1,correctSP,68.69541005,0.0,0.0,7,0.013606793,-0.05971648,-0.089001181,0.8848720940000001,0.7292946640000001,0.10454498699999999,-0.051326498,-0.046652955,0.8848720940000001,0.7292946640000001,-0.077331401,-0.06810646299999999,-0.131349406,0.8848720940000001,0.7292946640000001,h,b,0.10440583375,-0.00018958600000000027,-0.0830569455,0.951146788,0.8131319490000001
58,65,7,6,2,4,cue11,72.74861673,252.74861669999999,correct,1.529158323,44.1,-1.52911364,3258.1,3276.71,18.61000014,3254.03,3258.1,UP_SELECTION,72.74861673,4.06999993,3,within,1,2,1,2,4,landmark17B,1,correct,notHub,inbetween,1,correctSP,45.62911364,0.0,0.0,2,0.08214422,0.022045401000000003,-0.071571415,0.891229952,0.541143946,0.140600271,0.027932156,-0.043949065999999995,0.891229952,0.541143946,0.023688168,0.016158645,-0.099193764,0.891229952,0.541143946,b,d,0.0538963445,-0.050982322999999996,-0.112941755,0.87202383,0.708669291
59,66,7,7,4,12,cue15,268.7228977,88.72289775,correct,0.514511126,34.2,3.376032983,3285.77,3309.21,23.44000006,3283.704,3285.77,UP_SELECTION,88.72289775,2.06599998,3,across,2,2,3,1,10,landmark12B,1,correct,notHub,inbetween,1,correctSP,30.82396702,0.109526233,10.95262327,4,0.080494459,-0.07422734,-0.076345275,0.9094765290000001,0.63360774,0.056012007999999995,-0.08787212900000001,-0.074086843,0.9094765290000001,0.63360774,0.10497691,-0.060582551,-0.078603706,0.9094765290000001,0.63360774,d,l,-0.09788495274999998,0.0246423275,-0.0862719225,0.977616642,0.926009819
60,67,7,8,12,10,cue6,145.579687,-34.42031302,correct,3.811100152,68.1,-3.814385661,3318.67,3347.89,29.21999979,3316.21,3318.67,UP_SELECTION,145.579687,2.46000004,3,across,2,3,2,3,9,landmark15B,1,correct,notHub,withinComm,1,correctSP,71.91438566,0.0,0.0,10,-0.282102084,0.11046209800000001,-0.06878021599999999,0.8945041109999999,0.5119967870000001,-0.29212156100000003,0.086958225,-0.06086512400000001,0.8945041109999999,0.5119967870000001,-0.272082607,0.133965971,-0.076695308,0.8945041109999999,0.5119967870000001,l,j,0.05681895825,0.0244805915,0.0106086785,0.928109017,1.002556508
61,68,7,9,10,14,cue12,196.2759772,16.27597722,correct,0.029551451,93.7,1.106830131,3355.77,3393.11,37.33999992,3354.86,3355.77,DOWN_SELECTION,196.2759772,0.91000008,3,across,3,4,3,1,11,landmark1B,1,correct,notHub,withinComm,1,correctSP,92.59316987,0.011953691,1.1953690890000002,9,0.079234318,0.006085701999999999,-0.008945534,0.892124265,0.8083717709999999,0.069728773,-0.004377669,0.008797719,0.892124265,0.8083717709999999,0.088739863,0.016549073,-0.026688787999999998,0.892124265,0.8083717709999999,j,n,0.1296839505,-0.15046568300000002,-0.061647263499999994,0.9176446340000001,0.954871701
62,69,7,10,14,6,cue17,-16.27368179,163.72631819999998,correct,0.326281814,69.7,-0.22329201399999998,3405.0,3433.38,28.37999988,3400.11,3405.0,DOWN_SELECTION,-16.27368179,4.8900001,3,across,3,3,2,3,5,landmark8B,1,correct,hub,hub,1,correctSP,69.92329201,0.0,0.0,11,-0.073181629,0.061807928,0.051957407000000004,0.927763454,0.673118115,-0.130981735,0.06323778,0.082972379,0.927763454,0.673118115,-0.015381522,0.060378075999999996,0.020942434,0.927763454,0.673118115,n,f,0.11664902275,-0.036293192,0.0665627025,0.9074435120000001,0.896872948
63,30,4,1,7,9,cue8,32.57951117,212.57951119999998,incorrect,4.402950604,195.8,154.39778940000002,1893.599,1983.598,89.99900007,1891.076,1893.599,UP_SELECTION,32.57951117,2.523,5,within,1,2,2,3,8,landmark8B,1,correct,notHub,withinComm,0,correctNonSP,41.40221062,3.729216075,372.9216075,6,0.07371225,0.26760573,0.161297659,0.8710427759999999,0.434722195,0.101438172,0.283006985,0.136083697,0.8710427759999999,0.434722195,0.045986329000000006,0.252204474,0.18651162100000002,0.8710427759999999,0.434722195,g,i,0.329299385,0.025310913499999997,0.0710192155,0.9188865629999999,0.941641407
64,31,4,2,9,3,cue10,230.7250954,50.72509545,incorrect,5.046331549,112.3,46.78800607,2000.116,2043.776,43.65999984,1997.06,2000.116,UP_SELECTION,230.7250954,3.056,5,across,3,3,1,1,3,landmark3B,1,correct,hub,hub,0,correctNonSP,65.51199393,0.714189925,71.41899255,8,0.27028365,0.08183121,0.074174608,0.878962617,0.550778859,0.223970831,0.039178219,0.049293736,0.878962617,0.550778859,0.31659647,0.124484201,0.099055479,0.878962617,0.550778859,i,c,0.16487422450000003,0.11462589599999999,0.1265766815,0.930485417,0.526964811
65,32,4,3,3,8,cue5,-38.01013454,141.9898655,incorrect,7.063283003,85.7,43.550543299999994,2059.0460000000003,2116.07,57.02400017,2057.239,2059.0460000000003,UP_SELECTION,-38.01013454,1.80699992,5,across,3,2,2,3,7,landmark1B,1,correct,hub,hub,0,correctNonSP,42.1494567,1.033240917,103.3240917,3,0.30216856,0.008257747,-0.021493816000000002,0.955434714,0.685202532,0.44029979399999997,0.051857478,-0.046526949000000005,0.955434714,0.685202532,0.16403732599999998,-0.035341985,0.003539318,0.955434714,0.685202532,c,h,-0.11083948025000001,-0.0353481635,-0.015379048499999999,0.8782041359999999,0.9129961329999999
66,33,4,4,8,4,cue14,-10.21847865,169.7815213,correct,2.265969425,54.1,4.852357493,2136.226,2169.23,33.00399995,2129.526,2136.226,DOWN_SELECTION,169.7815213,6.70000005,5,across,3,3,1,1,4,landmark5B,1,correct,notHub,inbetween,1,correctSP,49.24764251,0.09852974199999999,9.852974165,7,0.20710019300000002,0.17431870000000002,0.140259066,0.9404448540000001,0.799784154,0.194624082,0.15040251699999999,0.081740706,0.9404448540000001,0.799784154,0.21957630399999997,0.198234882,0.198777426,0.9404448540000001,0.799784154,h,d,0.02932387875000001,-0.11526075899999999,0.0286929205,0.85991853,0.8048529409999999
67,34,4,5,4,1,cue16,-88.71984845,91.28015155,correct,1.572340272,46.9,-1.57280437,2180.226,2197.206,16.98000002,2176.156,2180.226,DOWN_SELECTION,91.28015155,4.06999993,5,within,1,2,1,1,1,landmark10B,1,correct,notHub,withinComm,1,correctSP,48.47280437,0.0,0.0,4,0.111019275,-0.071715986,0.019959716000000002,0.9447483440000001,0.834677825,0.162185667,-0.063449827,0.09378377,0.9447483440000001,0.834677825,0.059852884,-0.079982145,-0.053864338,0.9447483440000001,0.834677825,d,a,-0.017121261750000005,0.17182376700000002,0.093674004,0.8664363959999999,0.832089977
68,36,4,7,15,13,cue18,-43.64169504,136.358305,correct,1.4126600459999998,41.3,-1.413582669,2255.2960000000003,2270.5460000000003,15.25,2248.8070000000002,2255.2960000000003,UP_SELECTION,-43.64169504,6.48899984,5,within,1,2,3,2,3,landmark3B,1,correct,hub,hub,1,correctSP,42.71358267,0.0,0.0,12,0.024371325,0.005545401,0.074174608,0.913171218,0.624102401,0.087431489,-0.027272578999999998,0.049293736,0.913171218,0.624102401,-0.038688838999999996,0.038363381,0.099055479,0.913171218,0.624102401,o,m,0.058327092250000004,0.11428591250000002,0.050551793,0.8507413709999999,0.8361333209999999
69,37,4,8,13,10,cue19,98.13056691,-81.86943309,tooLong,0.06777960200000001,175.9,105.8518548,2295.716,2415.2670000000003,119.55099990000001,2277.476,2295.716,UP_SELECTION,98.13056691,18.24000001,5,across,3,3,2,3,9,landmark18B,1,correct,notHub,withinComm,0,correctNonSP,70.04814523,1.511130015,151.1130015,3,-0.067039075,0.008257747,0.034002269,0.904744071,0.599602702,-0.114860031,0.051857478,0.036315902000000004,0.904744071,0.599602702,-0.01921812,-0.035341985,0.031688636,0.904744071,0.599602702,m,j,-0.16442548399999998,0.035841819999999996,-0.24305975349999998,0.946979715,0.912458045
70,39,4,10,11,14,cue13,203.57852830000002,23.57852826,correct,3.083555568,39.4,-3.084813899,2483.1079999999997,2497.896,14.78800011,2476.595,2483.1079999999997,UP_SELECTION,203.57852830000002,6.51300001,5,within,1,2,3,2,11,landmark2B,1,correct,notHub,withinComm,1,correctSP,42.4848139,0.0,0.0,7,0.32489184600000004,0.17431870000000002,0.138296564,0.933264387,0.8210064140000001,0.384686619,0.15040251699999999,0.108489565,0.933264387,0.8210064140000001,0.265097072,0.198234882,0.168103563,0.933264387,0.8210064140000001,k,n,-0.009732014250000004,0.146101273,0.1917719735,0.905232505,0.6758430959999999
71,41,5,2,6,12,cue15,94.84130886,-85.15869114,tooLong,2.72775665,73.7,18.73091263,2597.482,2633.8059999999996,36.32399988,2595.702,2597.482,DOWN_SELECTION,-85.15869114,1.77999997,5,across,3,3,3,2,10,landmark11B,1,correct,notHub,inbetween,0,correctNonSP,54.96908737,0.34075356799999995,34.07535677,5,0.249426345,0.105650335,0.116147,0.8724096709999999,0.721272403,0.30575141100000003,0.084675015,0.115202308,0.8724096709999999,0.721272403,0.19310127800000002,0.126625654,0.117091692,0.8724096709999999,0.721272403,f,l,0.10021228575,0.010910795499999997,0.048770176,0.977616642,0.926009819
72,43,5,4,5,2,cue2,213.35934,33.35933995,tooLong,0.477636821,306.1,259.1989772,2683.7859999999996,2795.3459999999995,111.5600002,2677.962,2683.7859999999996,DOWN_SELECTION,33.35933995,5.82399988,5,within,1,2,1,1,2,landmark15B,1,correct,notHub,withinComm,0,correctNonSP,46.90102279,5.526510122,552.6510122000001,5,-0.061294264,0.105650335,-0.043251529000000004,0.924439094,0.496880971,-0.21293641100000002,0.084675015,0.05866833900000001,0.924439094,0.496880971,0.090347884,0.126625654,-0.145171396,0.924439094,0.496880971,e,b,0.012038902,0.092592116,-0.030232198500000005,0.8991919979999999,0.8564439420000001
73,45,5,6,7,9,cue8,32.57951117,212.57951119999998,tooLong,1.2015325590000001,65.6,24.19778938,2876.053,2905.2859999999996,29.23300004,2874.903,2876.053,UP_SELECTION,32.57951117,1.14999985,5,within,1,2,2,3,8,landmark8B,1,correct,notHub,withinComm,0,correctNonSP,41.40221062,0.584456458,58.44564583,6,0.07371225,0.26760573,0.161297659,0.8710427759999999,0.434722195,0.101438172,0.283006985,0.136083697,0.8710427759999999,0.434722195,0.045986329000000006,0.252204474,0.18651162100000002,0.8710427759999999,0.434722195,g,i,0.329299385,0.025310913499999997,0.0710192155,0.9188865629999999,0.941641407
74,46,5,7,9,3,cue10,230.7250954,50.72509545,tooLong,3.510231366,113.9,48.38800607,2916.373,2963.222,46.84899998,2912.283,2916.373,UP_SELECTION,50.72509545,4.09000015,5,across,3,3,1,1,3,landmark3B,1,correct,hub,hub,0,correctNonSP,65.51199393,0.738612934,73.86129342,8,0.27028365,0.08183121,0.074174608,0.878962617,0.550778859,0.223970831,0.039178219,0.049293736,0.878962617,0.550778859,0.31659647,0.124484201,0.099055479,0.878962617,0.550778859,i,c,0.16487422450000003,0.11462589599999999,0.1265766815,0.930485417,0.526964811
75,47,5,8,3,8,cue5,-38.01013454,141.9898655,tooLong,0.161498404,122.6,80.45054329999999,2972.595,3020.113,47.51800012,2970.183,2972.595,UP_SELECTION,-38.01013454,2.41199994,5,across,3,2,2,3,7,landmark1B,1,correct,hub,hub,0,correctNonSP,42.1494567,1.908697041,190.8697041,3,0.30216856,0.008257747,-0.021493816000000002,0.955434714,0.685202532,0.44029979399999997,0.051857478,-0.046526949000000005,0.955434714,0.685202532,0.16403732599999998,-0.035341985,0.003539318,0.955434714,0.685202532,c,h,-0.11083948025000001,-0.0353481635,-0.015379048499999999,0.8782041359999999,0.9129961329999999
76,49,5,10,4,1,cue16,-88.71984845,91.28015155,correct,1.971897328,46.5,-1.97280437,3087.0029999999997,3103.933,16.93000007,3082.393,3087.0029999999997,DOWN_SELECTION,91.28015155,4.60999989,5,within,1,2,1,1,1,landmark10B,1,correct,notHub,withinComm,1,correctSP,48.47280437,0.0,0.0,4,0.111019275,-0.071715986,0.019959716000000002,0.9447483440000001,0.834677825,0.162185667,-0.063449827,0.09378377,0.9447483440000001,0.834677825,0.059852884,-0.079982145,-0.053864338,0.9447483440000001,0.834677825,d,a,-0.017121261750000005,0.17182376700000002,0.093674004,0.8664363959999999,0.832089977
77,50,6,1,1,15,cue6,103.89078020000001,-76.10921978,tooLong,0.489406666,144.5,50.72160224,3133.547,3183.053,49.5059998,3127.0290000000005,3133.547,UP_SELECTION,103.89078020000001,6.51800013,5,across,2,4,3,2,12,landmark12B,1,correct,notHub,withinComm,0,correctNonSP,93.77839776,0.54086659,54.08665903,1,0.069137936,-0.034116852,0.008523718000000001,0.900705531,0.521243016,-0.00497289,0.014324373,0.002384969,0.900705531,0.521243016,0.143248762,-0.082558078,0.014662467,0.900705531,0.521243016,a,o,0.0926342495,-0.05585375149999999,0.021152179,0.962095057,0.819015321
78,51,6,2,15,13,cue18,-43.64169504,136.358305,tooLong,0.765317716,68.6,25.88641733,3342.8070000000002,3373.007,30.19999981,3338.677,3342.8070000000002,DOWN_SELECTION,136.358305,4.13000011,5,within,1,2,3,2,3,landmark3B,1,correct,hub,hub,0,correctNonSP,42.71358267,0.606046501,60.60465012,12,0.024371325,0.005545401,0.074174608,0.913171218,0.624102401,0.087431489,-0.027272578999999998,0.049293736,0.913171218,0.624102401,-0.038688838999999996,0.038363381,0.099055479,0.913171218,0.624102401,o,m,0.058327092250000004,0.11428591250000002,0.050551793,0.8507413709999999,0.8361333209999999
79,52,6,3,13,10,cue19,98.13056691,-81.86943309,tooLong,0.64881209,81.6,11.55185477,3381.538,3415.508,33.97000003,3379.968,3381.538,DOWN_SELECTION,98.13056691,1.56999994,5,across,3,3,2,3,9,landmark18B,1,correct,notHub,withinComm,0,correctSP,70.04814523,0.164913071,16.49130713,3,-0.067039075,0.008257747,0.034002269,0.904744071,0.599602702,-0.114860031,0.051857478,0.036315902000000004,0.904744071,0.599602702,-0.01921812,-0.035341985,0.031688636,0.904744071,0.599602702,m,j,-0.16442548399999998,0.035841819999999996,-0.24305975349999998,0.946979715,0.912458045
80,54,6,5,11,14,cue13,203.57852830000002,23.57852826,correct,2.7838334419999997,39.7,-2.784813899,3459.6679999999997,3474.4970000000003,14.829,3452.718,3459.6679999999997,UP_SELECTION,203.57852830000002,6.94999981,5,within,1,2,3,2,11,landmark2B,1,correct,notHub,withinComm,1,correctSP,42.4848139,0.0,0.0,7,0.32489184600000004,0.17431870000000002,0.138296564,0.933264387,0.8210064140000001,0.384686619,0.15040251699999999,0.108489565,0.933264387,0.8210064140000001,0.265097072,0.198234882,0.168103563,0.933264387,0.8210064140000001,k,n,-0.009732014250000004,0.146101273,0.1917719735,0.905232505,0.6758430959999999
81,56,6,7,6,8,cue5,94.84130886,-85.15869114,correct,1.47661116,45.5,1.477836385,3538.6079999999997,3556.138,17.52999997,3535.302,3538.6079999999997,DOWN_SELECTION,-85.15869114,3.30599999,5,within,1,2,2,3,7,landmark1B,1,correct,hub,hub,1,correctSP,44.02216362,0.033570281,3.3570280589999997,5,0.230400141,0.105650335,-0.021493816000000002,0.9378685929999999,0.67701736,0.363428785,0.084675015,-0.046526949000000005,0.9378685929999999,0.67701736,0.09737149699999999,0.126625654,0.003539318,0.9378685929999999,0.67701736,f,h,-0.024673677499999998,0.010910795499999997,-0.015379048499999999,0.80037231,0.853396803
82,58,6,9,3,9,cue8,-38.01013454,141.9898655,tooLong,0.800431731,137.3,71.78800607,3671.8579999999997,3726.218,54.36000013,3667.781,3671.8579999999997,UP_SELECTION,-38.01013454,4.0769999,5,across,3,3,2,3,8,landmark8B,1,correct,notHub,withinComm,0,correctNonSP,65.51199393,1.095799437,109.57994369999999,3,0.27028365,0.008257747,0.161297659,0.878962617,0.550778859,0.223970831,0.051857478,0.136083697,0.878962617,0.550778859,0.31659647,-0.035341985,0.18651162100000002,0.878962617,0.550778859,c,i,0.1648742245,-0.0353481635,0.0710192155,0.930485417,0.526964811
83,59,6,10,9,4,cue14,230.7250954,50.72509545,tooLong,0.034438458,141.2,68.58992026,3738.438,3794.4179999999997,55.98000002,3733.178,3738.438,UP_SELECTION,50.72509545,5.25999999,5,across,2,3,1,1,4,landmark5B,1,correct,notHub,inbetween,0,correctNonSP,72.61007974,0.944633589,94.46335895,8,-0.016714799,0.08183121,0.140259066,0.928255547,0.765720062,0.083364767,0.039178219,0.081740706,0.928255547,0.765720062,-0.116794365,0.124484201,0.198777426,0.928255547,0.765720062,i,d,0.20653058200000002,0.11462589599999999,0.0286929205,0.9135248840000001,0.8684026640000001
84,61,7,2,7,1,cue16,32.57951117,212.57951119999998,correct,2.35084964,52.7,4.232903587,3883.718,3923.139,39.42100001,3880.572,3883.718,UP_SELECTION,32.57951117,3.14600014,5,across,2,2,1,1,1,landmark10B,1,correct,notHub,withinComm,1,correctSP,48.46709641,0.087335613,8.733561323,6,0.093265137,0.26760573,0.019959716000000002,0.9578776809999999,0.452957795,0.19470861899999997,0.283006985,0.09378377,0.9578776809999999,0.452957795,-0.008178346,0.252204474,-0.053864338,0.9578776809999999,0.452957795,g,a,0.0316629345,0.025310913499999997,0.093674004,0.850761476,0.863283537
85,62,7,3,1,11,cue9,103.89078020000001,-76.10921978,tooLong,1.135833707,86.1,17.33371914,3937.202,3971.013,33.81099987,3930.1090000000004,3937.202,UP_SELECTION,-76.10921978,7.09300017,5,across,3,3,3,2,7,landmark1B,1,correct,hub,hub,0,correctSP,68.76628086,0.252067131,25.20671311,1,-0.140041954,-0.034116852,-0.021493816000000002,0.9350767059999999,0.791357086,-0.114285781,0.014324373,-0.046526949000000005,0.9350767059999999,0.791357086,-0.16579812800000002,-0.082558078,0.003539318,0.9350767059999999,0.791357086,a,k,-0.009569161500000003,-0.05585375149999999,0.052733289999999995,0.9091045179999999,0.745327135
86,63,7,4,11,13,cue18,203.57852830000002,23.57852826,correct,1.15280629,43.2,-1.1532541840000001,3981.508,3996.692,15.18400001,3977.972,3981.508,DOWN_SELECTION,23.57852826,3.53600002,5,within,1,2,3,2,3,landmark3B,1,correct,hub,hub,1,correctSP,44.35325418,0.0,0.0,7,0.30216856,0.17431870000000002,0.074174608,0.955434714,0.685202532,0.44029979399999997,0.15040251699999999,0.049293736,0.955434714,0.685202532,0.16403732599999998,0.198234882,0.099055479,0.955434714,0.685202532,k,m,0.17257560724999998,0.146101273,0.050551793,0.8599571709999999,0.8114371779999999
87,64,7,5,13,15,cue6,98.13056691,-81.86943309,tooLong,0.7704156059999999,187.8,145.08641730000002,4006.1090000000004,4081.722,75.61300015,4003.6479999999997,4006.1090000000004,DOWN_SELECTION,98.13056691,2.46099997,5,within,1,2,3,2,12,landmark12B,1,correct,notHub,withinComm,0,correctNonSP,42.71358267,3.396727885,339.67278849999997,3,0.024371325,0.008257747,0.008523718000000001,0.913171218,0.624102401,0.087431489,0.051857478,0.002384969,0.913171218,0.624102401,-0.038688838999999996,-0.035341985,0.014662467,0.913171218,0.624102401,m,o,0.058327092250000004,0.035841819999999996,0.021152179,0.8507413709999999,0.8361333209999999
88,65,7,6,15,5,cue4,-43.64169504,136.358305,tooLong,2.557385466,125.0,53.21970303,4091.509,4144.669,53.16000009,4088.6820000000002,4091.509,DOWN_SELECTION,136.358305,2.8269999,5,across,3,3,1,1,5,landmark13B,1,correct,hub,hub,0,correctNonSP,71.78029697,0.7414249490000001,74.14249492,12,0.11056081599999999,0.005545401,0.149981299,0.8857286329999999,0.579640736,-0.012514929,-0.027272578999999998,0.093194594,0.8857286329999999,0.579640736,0.233636562,0.038363381,0.20676800399999998,0.8857286329999999,0.579640736,o,e,0.08530042675000002,0.11428591250000002,0.1661633035,0.893068601,0.908633826
89,66,7,7,5,2,cue2,213.35934,33.35933995,tooLong,0.077905475,65.1,18.19897721,4157.589,4183.0509999999995,25.46200013,4151.657999999999,4157.589,DOWN_SELECTION,213.35934,5.931,5,within,1,2,1,1,2,landmark15B,1,correct,notHub,withinComm,0,correctNonSP,46.90102279,0.38802943100000004,38.80294314,5,-0.061294264,0.105650335,-0.043251529000000004,0.924439094,0.496880971,-0.21293641100000002,0.084675015,0.05866833900000001,0.924439094,0.496880971,0.090347884,0.126625654,-0.145171396,0.924439094,0.496880971,e,b,0.012038902,0.092592116,-0.030232198500000005,0.8991919979999999,0.8564439420000001
90,67,7,8,2,10,cue19,68.75722218,248.7572222,correct,1.4473842780000001,85.9,6.159195017999999,4201.223,4231.189,29.96600008,4190.012,4201.223,UP_SELECTION,68.75722218,11.21099997,5,across,2,3,2,3,9,landmark18B,1,correct,notHub,withinComm,1,correctSP,79.74080498,0.077240191,7.724019114,2,-0.12129318300000001,-0.158936396,0.034002269,0.8930605209999999,0.5736922870000001,-0.20869368600000002,-0.12850868099999999,0.036315902000000004,0.8930605209999999,0.5736922870000001,-0.03389268,-0.189364111,0.031688636,0.8930605209999999,0.5736922870000001,b,j,0.02292592724999999,-0.0282497345,-0.24305975349999998,0.921372947,1.035001207
91,68,7,9,10,14,cue13,192.3821459,12.38214594,tooLong,1.419427948,164.9,70.58524041,4242.909000000001,4308.548,65.63899994,4238.169,4242.909000000001,UP_SELECTION,192.3821459,4.74000001,5,across,3,4,3,2,11,landmark2B,1,correct,notHub,withinComm,0,correctNonSP,94.31475959,0.748400788,74.84007881,9,-0.131163361,-0.005613336,0.138296564,0.9153690590000001,0.732666088,-0.189959245,0.000574401,0.108489565,0.9153690590000001,0.732666088,-0.072367477,-0.011801073,0.168103563,0.9153690590000001,0.732666088,j,n,0.03483777325,-0.03395455,0.1917719735,0.9230834790000001,0.922159152
92,69,7,10,14,12,cue15,-19.92793093,160.0720691,correct,2.3044446819999997,45.9,-2.305055254,4319.103,4335.579000000001,16.47599984,4315.523,4319.103,DOWN_SELECTION,-19.92793093,3.58000016,5,within,1,2,3,2,10,landmark11B,1,correct,notHub,inbetween,1,correctSP,48.20505525,0.0,0.0,11,0.38628453100000004,0.009760083000000001,0.116147,0.931794131,0.768099326,0.38062343600000004,0.102535581,0.115202308,0.931794131,0.768099326,0.391945627,-0.083015416,0.117091692,0.931794131,0.768099326,n,l,0.20553730374999998,-0.026125378499999997,0.048770176,0.907899545,0.94538493
93,30,4,1,12,6,cue12,148.1546841,-31.84531589,incorrect,5.293449016,87.8,37.97814829,1985.4479999999999,2031.668,46.22000003,1980.229,1985.4479999999999,UP_SELECTION,148.1546841,5.2190001,6,across,2,3,2,1,5,landmark11B,1,correct,hub,hub,0,correctNonSP,49.82185171,0.76227894,76.22789397,10,0.23113416,0.098967313,0.02065331,0.882846949,0.664948352,0.145070013,0.160412353,0.050405555,0.882846949,0.664948352,0.31719830600000004,0.037522272999999995,-0.009098935,0.882846949,0.664948352,l,f,-0.0392850555,0.127655705,0.004069919000000002,0.916328508,0.8998464909999999
94,31,4,2,6,14,cue7,72.37272871,252.3727287,incorrect,4.031770119,69.2,-2.958043654,2050.439,2180.118,129.6790001,2045.158,2050.439,DOWN_SELECTION,252.3727287,5.2809999,6,across,3,3,3,3,11,landmark8B,1,correct,notHub,withinComm,0,correctSP,72.15804365,0.0,0.0,5,0.20631293,-0.0068276790000000006,-0.07594205799999999,0.8393155959999999,0.613180205,0.178216811,-0.045144580999999996,-0.1056859,0.8393155959999999,0.613180205,0.23440905,0.031489222000000004,-0.04619821599999999,0.8393155959999999,0.613180205,f,n,-0.0030347520000000017,0.103735727,-0.169034766,0.9068581659999999,0.924901218
95,32,4,3,14,10,cue15,-23.34783805,156.652162,correct,3.515843002,94.1,1.73058001,2207.769,2292.573,84.80399990000001,2193.599,2207.769,DOWN_SELECTION,156.652162,14.17000007,6,across,2,4,2,1,9,landmark12B,1,correct,notHub,withinComm,1,correctSP,92.36941999,0.018735421000000002,1.8735421419999998,11,-0.168384371,-0.013355718,-0.070208153,0.902857925,0.486255035,-0.040656778,-0.034547812000000004,-0.052620189000000005,0.902857925,0.486255035,-0.29611196300000003,0.007836377,-0.087796116,0.902857925,0.486255035,n,j,0.16589082025,0.1768297605,-0.13888203999999998,0.8984659759999999,0.9106992070000001
96,33,4,4,10,2,cue18,199.9377267,19.93772674,correct,3.5414159119999997,79.5,1.629215725,2313.569,2397.5789999999997,84.00999999,2299.529,2313.569,UP_SELECTION,19.93772674,14.03999997,6,across,2,3,1,2,2,landmark2B,1,correct,notHub,withinComm,1,correctSP,77.87078428,0.020922041000000002,2.092204079,9,0.076086713,-0.061201175,0.03258479,0.9402444440000001,0.7412605040000001,0.124897141,-0.013029428999999999,-0.015134169,0.9402444440000001,0.7412605040000001,0.027276285,-0.109372922,0.08030374900000001,0.9402444440000001,0.7412605040000001,j,b,0.11122524650000001,-0.029170892499999997,-0.005348173999999999,0.942059668,0.9428886129999999
97,34,4,5,2,5,cue22,76.50304961,256.5030496,correct,0.8808959040000001,41.5,0.881290993,2406.199,2422.0389999999998,15.84000015,2404.569,2406.199,DOWN_SELECTION,76.50304961,1.62999987,6,within,1,2,1,2,5,landmark11B,1,correct,hub,hub,1,correctSP,40.61870901,0.021696677,2.16966766,2,0.092568774,-0.071550154,0.02065331,0.931794131,0.768099326,0.122902691,-0.015325571000000001,0.050405555,0.931794131,0.768099326,0.062234857000000005,-0.127774736,-0.009098935,0.931794131,0.768099326,b,e,-0.137108964,0.1337073345,0.002058172,0.9336362709999999,0.757260928
98,35,4,6,5,12,cue16,197.71758280000003,17.71758282,tooLong,1.887599197,64.7,8.499406876,2442.339,2487.799,45.46000003,2429.029,2442.339,UP_SELECTION,17.71758282,13.30999995,6,across,2,3,3,3,10,landmark3B,1,correct,notHub,inbetween,0,correctSP,56.20059312,0.151233402,15.12334017,5,0.23113416,-0.0068276790000000006,-0.178292772,0.882846949,0.664948352,0.145070013,-0.045144580999999996,-0.159348068,0.882846949,0.664948352,0.31719830600000004,0.031489222000000004,-0.197237475,0.882846949,0.664948352,e,l,-0.04108854325,-0.05058041049999999,-0.1037611775,0.791757607,0.824756642
99,36,4,7,12,7,cue8,148.1546841,-31.84531589,correct,3.708994744,38.4,6.232980124,2498.529,2518.139,19.6099999,2494.792,2498.529,UP_SELECTION,148.1546841,3.73699998,6,across,2,2,2,1,6,landmark13B,1,correct,notHub,inbetween,1,correctSP,32.16701988,0.193769275,19.37692751,10,-0.013720313999999999,0.098967313,0.117885586,0.905527064,0.610120301,-0.05190616,0.160412353,0.103105036,0.905527064,0.610120301,0.024465532999999998,0.037522272999999995,0.132666136,0.905527064,0.610120301,l,g,0.1896549045,0.127655705,-0.0272774665,0.9455485659999999,0.907973438
100,37,4,8,7,15,cue20,35.15346303,215.153463,tooLong,2.032823391,97.9,48.4307135,2528.969,2612.659,83.69000006,2525.119,2528.969,UP_SELECTION,35.15346303,3.8499999,6,across,2,2,3,3,12,landmark17B,1,correct,notHub,withinComm,0,correctNonSP,49.4692865,0.979005701,97.90057007,6,-0.005906128,0.107452669,-0.00937379,0.856965612,0.607240869,-0.016993094,0.103417874,-0.059881468,0.856965612,0.607240869,0.0051808390000000005,0.11148746300000001,0.041133889,0.856965612,0.607240869,g,o,0.17047413525,0.202576128,0.26006349100000004,0.916626035,0.7704019870000001
101,38,4,9,15,3,cue3,-43.64169504,136.358305,correct,0.5043443,57.0,3.565692195,2622.219,2654.059,31.84000016,2619.66,2622.219,DOWN_SELECTION,-43.64169504,2.55900001,6,across,2,2,1,2,3,landmark7B,1,correct,hub,hub,1,correctSP,53.4343078,0.06673039,6.673038992,12,-0.178007085,0.025524917,0.014056368,0.8696607059999999,0.653287531,-0.11891905900000001,0.041708544,0.027517292999999998,0.8696607059999999,0.653287531,-0.237095112,0.00934129,0.000595442,0.8696607059999999,0.653287531,o,c,0.0395274665,-0.042061078,0.118902168,0.912689112,0.884844234
102,39,4,10,3,9,cue13,-25.46270111,154.5372989,tooLong,1.9253980309999998,130.3,62.43430231,2665.829,2725.81,59.98099994,2661.05,2665.829,UP_SELECTION,-25.46270111,4.77900005,6,across,3,3,2,1,8,landmark6B,1,correct,notHub,withinComm,0,correctNonSP,67.86569769,0.919968474,91.99684736,3,-0.025725041,0.07652189200000001,-0.046289294,0.90188007,0.6390928229999999,-0.035911631,0.092105989,-0.05069012,0.90188007,0.6390928229999999,-0.015538451000000002,0.060937794,-0.041888468,0.90188007,0.6390928229999999,c,i,-0.0036452837499999988,0.14924610500000002,0.0143095655,0.9376918879999999,0.844342047
103,40,5,1,9,2,cue18,230.7250954,50.72509545,tooLong,3.730417534,113.5,24.45124333,2884.3959999999997,2973.893,89.49699998,2881.1929999999998,2884.3959999999997,UP_SELECTION,230.7250954,3.20299983,6,across,3,4,1,2,2,landmark2B,1,correct,notHub,withinComm,0,correctNonSP,89.04875667,0.274582647,27.45826471,8,0.117408329,0.08848949199999999,0.03258479,0.888446663,0.856544105,0.064914643,0.126925985,-0.015134169,0.888446663,0.856544105,0.169902015,0.050053,0.08030374900000001,0.888446663,0.856544105,i,b,0.16322675425000002,-0.07820813149999999,-0.005348173999999999,0.905392656,0.798692868
104,42,5,3,7,10,cue15,35.15346303,215.153463,correct,1.3845531830000002,45.9,1.3844475109999999,3004.333,3051.292,46.95900012,3002.343,3004.333,UP_SELECTION,35.15346303,1.99,6,within,1,2,2,1,9,landmark12B,1,correct,notHub,withinComm,1,correctSP,44.51555249,0.031100311000000002,3.110031065,6,-0.010205736,0.107452669,-0.070208153,0.8857286329999999,0.579640736,0.028882209,0.103417874,-0.052620189000000005,0.8857286329999999,0.579640736,-0.04929368,0.11148746300000001,-0.087796116,0.8857286329999999,0.579640736,g,j,0.04232305125,0.202576128,-0.13888203999999998,0.8889825000000001,0.798784018
105,43,5,4,10,8,cue19,199.9377267,19.93772674,correct,0.242346907,40.8,-0.242304403,3065.3920000000003,3080.093,14.70099998,3058.283,3065.3920000000003,UP_SELECTION,199.9377267,7.10899997,6,within,1,2,2,1,7,landmark18B,1,correct,hub,hub,1,correctSP,41.0423044,0.0,0.0,9,-0.026527477,-0.061201175,0.001533002,0.9225194059999999,0.569685899,0.025544499999999998,-0.013029428999999999,-0.034410577000000005,0.9225194059999999,0.569685899,-0.078599456,-0.109372922,0.037476582,0.9225194059999999,0.569685899,j,h,0.12738071025,-0.029170892499999997,-0.062442083,0.8494624479999999,0.901428083
106,44,5,5,8,4,cue11,-35.91964864,144.08035139999998,correct,0.365775523,57.9,3.651537751,3095.934,3142.627,46.69299984,3087.093,3095.934,UP_SELECTION,-35.91964864,8.84100008,6,across,3,3,1,2,4,landmark5B,1,correct,notHub,inbetween,1,correctSP,54.24846225,0.06731136,6.731135962000001,7,0.131613116,0.014556355,-0.033553655,0.861925045,0.809490897,0.025647382000000003,0.01617273,-0.048347472,0.861925045,0.809490897,0.23757884899999998,0.01293998,-0.018759838,0.861925045,0.809490897,h,d,-0.0892809025,0.14663424549999998,0.094556879,0.950005262,0.9864281140000001
107,45,5,6,4,1,cue5,-88.71984845,91.28015155,correct,0.885365464,44.9,0.88535237,3151.603,3167.903,16.29999995,3149.603,3151.603,DOWN_SELECTION,91.28015155,2.0,6,within,1,2,1,2,1,landmark4B,1,correct,notHub,withinComm,1,correctSP,44.01464763,0.020114949,2.01149485,4,0.249848613,0.034740295,-0.043768728,0.9154722890000001,0.8572163629999999,0.051919691,0.055060863,-0.08420587800000001,0.9154722890000001,0.8572163629999999,0.447777534,0.014419726,-0.003331577,0.9154722890000001,0.8572163629999999,d,a,-0.051190936500000006,0.0460139405,0.0303216275,0.80037231,0.853396803
108,46,5,7,1,11,cue9,107.54615840000001,-72.45384156,tooLong,0.8078785559999999,91.2,23.96342794,3188.3259999999996,3252.7729999999997,64.44700002,3174.893,3188.3259999999996,DOWN_SELECTION,107.54615840000001,13.43300009,6,across,3,3,3,3,7,landmark18B,1,correct,hub,hub,0,correctNonSP,67.23657206,0.356404665,35.64046651,1,0.144348695,0.075089894,0.001533002,0.9568520079999999,0.627959727,-0.018591488,0.14327996699999998,-0.034410577000000005,0.9568520079999999,0.627959727,0.307288877,0.006899822,0.037476582,0.9568520079999999,0.627959727,a,k,0.12574012099999998,0.053799322999999996,0.017375961000000002,0.873853102,0.860611626
109,47,5,8,11,13,cue4,207.840948,27.84094798,tooLong,0.10605834300000001,64.5,16.81496784,3265.423,3295.723,30.30000019,3259.703,3265.423,DOWN_SELECTION,207.840948,5.71999979,6,within,1,2,3,3,3,landmark7B,1,correct,hub,hub,0,correctSP,47.68503216,0.3526257,35.26256998,7,-0.144736547,0.014556355,0.014056368,0.878498483,0.513595695,-0.210864246,0.01617273,0.027517292999999998,0.878498483,0.513595695,-0.07860884900000001,0.01293998,0.000595442,0.878498483,0.513595695,k,m,0.10584391075,0.226114885,0.15305574,0.94365199,0.809006518
110,48,5,9,13,6,cue12,84.89820295,264.8982029,correct,2.705783326,51.5,2.813798735,3312.2129999999997,3354.5229999999997,42.30999994,3302.703,3312.2129999999997,UP_SELECTION,84.89820295,9.50999999,6,across,3,2,2,1,5,landmark11B,1,correct,hub,hub,1,correctSP,48.68620126,0.057794584,5.779458373,3,0.186053705,0.07652189200000001,0.02065331,0.895993312,0.666075328,0.140699965,0.092105989,0.050405555,0.895993312,0.666075328,0.231407445,0.060937794,-0.009098935,0.895993312,0.666075328,m,f,0.216034946,0.017414959499999997,0.004069919000000002,0.921572009,0.8940287029999999
111,49,5,10,6,14,cue7,72.37272871,252.3727287,tooLong,2.598066072,85.6,13.44195635,3371.863,3416.243,44.38000011,3361.492,3371.863,DOWN_SELECTION,252.3727287,10.37100006,6,across,3,3,3,3,11,landmark8B,1,correct,notHub,withinComm,0,correctSP,72.15804365,0.186284933,18.62849333,5,0.20631293,-0.0068276790000000006,-0.07594205799999999,0.8393155959999999,0.613180205,0.178216811,-0.045144580999999996,-0.1056859,0.8393155959999999,0.613180205,0.23440905,0.031489222000000004,-0.04619821599999999,0.8393155959999999,0.613180205,f,n,-0.0030347520000000017,0.103735727,-0.169034766,0.9068581659999999,0.924901218
112,50,6,1,14,5,cue22,-23.34783805,156.652162,correct,3.4932968860000004,74.8,-3.495985071,3451.013,3479.184,28.17100001,3439.724,3451.013,UP_SELECTION,-23.34783805,11.28900003,6,across,2,3,1,2,5,landmark11B,1,correct,hub,hub,1,correctSP,78.29598507,0.0,0.0,11,0.20631293,-0.013355718,0.02065331,0.8393155959999999,0.613180205,0.178216811,-0.034547812000000004,0.050405555,0.8393155959999999,0.613180205,0.23440905,0.007836377,-0.009098935,0.8393155959999999,0.613180205,n,e,0.009853213749999992,0.1768297605,0.002058172,0.878323905,0.811247507
113,51,6,2,5,12,cue16,197.71758280000003,17.71758282,tooLong,1.9875641419999999,64.8,8.599406876,3491.8920000000003,3554.5229999999997,62.63100004,3486.153,3491.8920000000003,UP_SELECTION,17.71758282,5.73900008,6,across,2,3,3,3,10,landmark3B,1,correct,notHub,inbetween,0,correctSP,56.20059312,0.15301274199999998,15.30127424,5,0.23113416,-0.0068276790000000006,-0.178292772,0.882846949,0.664948352,0.145070013,-0.045144580999999996,-0.159348068,0.882846949,0.664948352,0.31719830600000004,0.031489222000000004,-0.197237475,0.882846949,0.664948352,e,l,-0.04108854325,-0.05058041049999999,-0.1037611775,0.791757607,0.824756642
114,52,6,3,12,15,cue20,148.1546841,-31.84531589,correct,0.187993823,45.9,-0.188028742,3565.183,3581.5440000000003,16.36100006,3561.514,3565.183,UP_SELECTION,148.1546841,3.66899991,6,within,1,2,3,3,12,landmark17B,1,correct,notHub,withinComm,1,correctSP,46.08802874,0.0,0.0,10,0.050557736,0.098967313,-0.00937379,0.873418479,0.730898732,0.073326077,0.160412353,-0.059881468,0.873418479,0.730898732,0.027789396,0.037522272999999995,0.041133889,0.873418479,0.730898732,l,o,0.153122291,0.127655705,0.26006349100000004,0.940725128,0.830713232
115,53,6,4,15,13,cue4,-43.64169504,136.358305,correct,0.277188511,40.6,0.277191792,3592.7340000000004,3618.738,26.00399995,3588.494,3592.7340000000004,DOWN_SELECTION,136.358305,4.24000001,6,within,1,2,3,3,3,landmark7B,1,correct,hub,hub,1,correctSP,40.32280821,0.006874318000000001,0.6874317640000001,12,-0.178007085,0.025524917,0.014056368,0.8696607059999999,0.653287531,-0.11891905900000001,0.041708544,0.027517292999999998,0.8696607059999999,0.653287531,-0.237095112,0.00934129,0.000595442,0.8696607059999999,0.653287531,o,m,3.0050500000003422e-05,-0.042061078,0.15305574,0.8959105409999999,0.763909327
116,54,6,5,13,11,cue9,84.89820295,264.8982029,correct,0.484792275,47.2,-0.485032165,3633.277,3656.934,23.65700007,3625.6820000000002,3633.277,UP_SELECTION,84.89820295,7.59500003,6,within,1,2,3,3,7,landmark18B,1,correct,hub,hub,1,correctSP,47.68503216,0.0,0.0,3,-0.144736547,0.07652189200000001,0.001533002,0.878498483,0.513595695,-0.210864246,0.092105989,-0.034410577000000005,0.878498483,0.513595695,-0.07860884900000001,0.060937794,0.037476582,0.878498483,0.513595695,m,k,0.10584391074999999,0.017414959499999997,0.017375961000000002,0.94365199,0.809006518
117,56,6,7,1,4,cue11,107.54615840000001,-72.45384156,correct,0.5145023120000001,43.5,-0.51464763,3759.393,3789.197,29.80400014,3757.0040000000004,3759.393,UP_SELECTION,107.54615840000001,2.38899994,6,within,1,2,1,2,4,landmark5B,1,correct,notHub,inbetween,1,correctSP,44.01464763,0.0,0.0,1,0.249848613,0.075089894,-0.033553655,0.9154722890000001,0.8572163629999999,0.051919691,0.14327996699999998,-0.048347472,0.9154722890000001,0.8572163629999999,0.447777534,0.006899822,-0.018759838,0.9154722890000001,0.8572163629999999,a,d,-0.051190936500000006,0.053799322999999996,0.094556879,0.80037231,0.853396803
118,57,6,8,4,8,cue19,-88.71984845,91.28015155,correct,1.5255080109999999,55.7,1.451537751,3801.914,3824.4640000000004,22.54999996,3796.1540000000005,3801.914,DOWN_SELECTION,91.28015155,5.75999999,6,across,2,3,2,1,7,landmark18B,1,correct,hub,hub,1,correctSP,54.24846225,0.026757215,2.675721469,4,0.131613116,0.034740295,0.001533002,0.861925045,0.809490897,0.025647382000000003,0.055060863,-0.034410577000000005,0.861925045,0.809490897,0.23757884899999998,0.014419726,0.037476582,0.861925045,0.809490897,d,h,-0.08928090249999998,0.0460139405,-0.062442083,0.950005262,0.9864281140000001
119,58,6,9,8,3,cue3,-35.91964864,144.08035139999998,tooLong,0.478176838,80.65,31.22854734,3836.3140000000003,3879.553,43.23900008,3831.4640000000004,3836.3140000000003,DOWN_SELECTION,-35.91964864,4.8499999,6,across,3,2,1,2,3,landmark7B,1,correct,hub,hub,0,correctNonSP,49.42145266,0.631882425,63.18824248,7,-0.144736547,0.014556355,0.014056368,0.878498483,0.513595695,-0.210864246,0.01617273,0.027517292999999998,0.878498483,0.513595695,-0.07860884900000001,0.01293998,0.000595442,0.878498483,0.513595695,h,c,-0.11985109050000002,0.14663424549999998,0.118902168,0.955638695,1.004200595
120,59,6,10,3,9,cue13,-25.46270111,154.5372989,tooLong,2.174236032,92.5,24.63430231,3895.5440000000003,3959.5240000000003,63.98000002,3886.5440000000003,3895.5440000000003,DOWN_SELECTION,154.5372989,9.0,6,across,3,3,2,1,8,landmark6B,1,correct,notHub,withinComm,0,correctNonSP,67.86569769,0.362986061,36.29860615,3,-0.025725041,0.07652189200000001,-0.046289294,0.90188007,0.6390928229999999,-0.035911631,0.092105989,-0.05069012,0.90188007,0.6390928229999999,-0.015538451000000002,0.060937794,-0.041888468,0.90188007,0.6390928229999999,c,i,-0.0036452837499999988,0.14924610500000002,0.0143095655,0.9376918879999999,0.844342047
121,60,7,1,9,14,cue7,230.7250954,50.72509545,correct,2.2953837459999997,76.6,6.828772633,3985.2340000000004,4058.0040000000004,72.76999998,3982.708,3985.2340000000004,UP_SELECTION,230.7250954,2.52600003,6,across,2,3,3,3,11,landmark8B,1,correct,notHub,withinComm,1,correctSP,69.77122737,0.097873764,9.787376387,8,0.087408086,0.08848949199999999,-0.07594205799999999,0.90936535,0.653497087,0.126683715,0.126925985,-0.1056859,0.90936535,0.653497087,0.048132457999999996,0.050053,-0.04619821599999999,0.90936535,0.653497087,i,n,0.29249544025,-0.07820813149999999,-0.169034766,0.903538135,0.9083994390000001
122,61,7,2,14,5,cue22,-23.34783805,156.652162,correct,2.092107579,85.0,6.7040149289999995,4068.284,4108.608,40.32400012,4064.9840000000004,4068.284,DOWN_SELECTION,156.652162,3.29999995,6,across,2,3,1,2,5,landmark11B,1,correct,hub,hub,1,correctSP,78.29598507,0.08562399400000001,8.562399365,11,0.20631293,-0.013355718,0.02065331,0.8393155959999999,0.613180205,0.178216811,-0.034547812000000004,0.050405555,0.8393155959999999,0.613180205,0.23440905,0.007836377,-0.009098935,0.8393155959999999,0.613180205,n,e,0.009853213749999992,0.1768297605,0.002058172,0.878323905,0.811247507
123,62,7,3,5,11,cue9,197.71758280000003,17.71758282,correct,0.17186732,54.3,4.868286383,4122.809,4169.974,47.16499996,4115.583,4122.809,DOWN_SELECTION,197.71758280000003,7.22600008,6,across,3,2,3,3,7,landmark18B,1,correct,hub,hub,1,correctSP,49.43171362,0.09848508199999999,9.848508229,5,0.306084309,-0.0068276790000000006,0.001533002,0.889320655,0.644599893,0.268846816,-0.045144580999999996,-0.034410577000000005,0.889320655,0.644599893,0.34332180100000004,0.031489222000000004,0.037476582,0.889320655,0.644599893,e,k,0.1568222175,-0.05058041049999999,0.017375961000000002,0.900768224,0.7864476779999999
124,63,7,4,11,1,cue5,207.840948,27.84094798,correct,1.2422731790000001,69.4,1.242627943,4178.684,4227.065,48.38100004,4176.925,4178.684,DOWN_SELECTION,27.84094798,1.75900007,6,across,3,3,1,2,1,landmark4B,1,correct,notHub,withinComm,1,correctSP,68.15737206,0.018231747,1.8231746709999999,7,0.144348694,0.014556355,-0.043768728,0.9568520079999999,0.627959727,-0.018591488,0.01617273,-0.08420587800000001,0.9568520079999999,0.627959727,0.307288877,0.01293998,-0.003331577,0.9568520079999999,0.627959727,k,a,0.12574012099999998,0.226114885,0.0303216275,0.873853102,0.860611626
125,64,7,5,1,4,cue11,107.54615840000001,-72.45384156,correct,0.71448368,43.3,-0.71464763,4235.345,4252.714,17.36899996,4234.025,4235.345,DOWN_SELECTION,107.54615840000001,1.32000017,6,within,1,2,1,2,4,landmark5B,1,correct,notHub,inbetween,1,correctSP,44.01464763,0.0,0.0,1,0.249848613,0.075089894,-0.033553655,0.9154722890000001,0.8572163629999999,0.051919691,0.14327996699999998,-0.048347472,0.9154722890000001,0.8572163629999999,0.447777534,0.006899822,-0.018759838,0.9154722890000001,0.8572163629999999,a,d,-0.051190936500000006,0.053799322999999996,0.094556879,0.80037231,0.853396803
126,65,7,6,4,12,cue16,-88.71984845,91.28015155,tooLong,2.2646058769999997,51.9,19.18874371,4261.954000000001,4293.319,31.36500001,4259.705,4261.954000000001,UP_SELECTION,-88.71984845,2.24900008,6,across,2,2,3,3,10,landmark3B,1,correct,notHub,inbetween,0,correctNonSP,32.71125629,0.586609806,58.66098062,4,-0.095683376,0.034740295,-0.178292772,0.923530838,0.708810268,-0.08587179800000001,0.055060863,-0.159348068,0.923530838,0.708810268,-0.105494953,0.014419726,-0.197237475,0.923530838,0.708810268,d,l,0.023274630500000004,0.0460139405,-0.1037611775,0.9036173190000001,0.848905937
127,66,7,7,12,15,cue20,148.1546841,-31.84531589,correct,0.588007927,45.5,-0.588028742,4305.183,4321.128,15.94500017,4300.269,4305.183,UP_SELECTION,148.1546841,4.9139998,6,within,1,2,3,3,12,landmark17B,1,correct,notHub,withinComm,1,correctSP,46.08802874,0.0,0.0,10,0.050557736,0.098967313,-0.00937379,0.873418479,0.730898732,0.073326077,0.160412353,-0.059881468,0.873418479,0.730898732,0.027789396,0.037522272999999995,0.041133889,0.873418479,0.730898732,l,o,0.153122291,0.127655705,0.26006349100000004,0.940725128,0.830713232
128,67,7,8,15,13,cue4,-43.64169504,136.358305,correct,0.776992075,41.1,0.777191792,4329.605,4345.515,15.90999985,4328.105,4329.605,UP_SELECTION,-43.64169504,1.5,6,within,1,2,3,3,3,landmark7B,1,correct,hub,hub,1,correctSP,40.32280821,0.019274248,1.927424766,12,-0.178007085,0.025524917,0.014056368,0.8696607059999999,0.653287531,-0.11891905900000001,0.041708544,0.027517292999999998,0.8696607059999999,0.653287531,-0.237095112,0.00934129,0.000595442,0.8696607059999999,0.653287531,o,m,3.0050500000003422e-05,-0.042061078,0.15305574,0.8959105409999999,0.763909327
129,68,7,9,13,10,cue15,84.89820295,264.8982029,tooLong,2.370469394,120.0,44.45310695,4360.675,4411.619000000001,50.94400001,4352.465,4360.675,DOWN_SELECTION,264.8982029,8.21000004,6,across,3,3,2,1,9,landmark12B,1,correct,notHub,withinComm,0,correctNonSP,75.54689305,0.588417408,58.84174075,3,-0.135025209,0.07652189200000001,-0.070208153,0.9200304659999999,0.524510149,0.016270648999999998,0.092105989,-0.052620189000000005,0.9200304659999999,0.524510149,-0.286321067,0.060937794,-0.087796116,0.9200304659999999,0.524510149,m,j,0.043222047999999985,0.017414959499999997,-0.13888203999999998,0.887284642,0.913346463
130,69,7,10,10,7,cue8,199.9377267,19.93772674,correct,3.1146019689999997,41.4,-3.1155524889999997,4422.605,4440.459,17.85399985,4418.559,4422.605,UP_SELECTION,19.93772674,4.046,6,within,1,2,2,1,6,landmark13B,1,correct,notHub,inbetween,1,correctSP,44.51555249,0.0,0.0,9,-0.010205736,-0.061201175,0.117885586,0.8857286329999999,0.579640736,0.028882209,-0.013029428999999999,0.103105036,0.8857286329999999,0.579640736,-0.04929368,-0.109372922,0.132666136,0.8857286329999999,0.579640736,j,g,0.04232305125,-0.029170892499999997,-0.0272774665,0.8889825000000001,0.798784018
131,30,4,1,12,5,cue13,150.8688957,-29.13110427,tooLong,2.677907509,83.4,29.42154144,2520.201,2588.302,68.10100007,2516.3779999999997,2520.201,UP_SELECTION,150.8688957,3.82299996,8,across,3,3,1,1,5,landmark15B,1,correct,hub,hub,0,correctNonSP,53.97845856,0.545060793,54.50607932,10,0.012642287,-0.147019069,-0.073213919,0.897271468,0.511317864,-0.052095788,-0.14074004,-0.110034605,0.897271468,0.511317864,0.077380361,-0.153298098,-0.036393233,0.897271468,0.511317864,l,e,0.3349744005,-0.029743247,-0.03393316699999999,0.919672142,0.746010588
132,32,4,3,11,1,cue12,194.6042511,14.60425105,correct,0.99393857,67.0,-0.9939986829999999,2644.578,2680.8579999999997,36.27999997,2643.1890000000003,2644.578,DOWN_SELECTION,14.60425105,1.38899994,8,across,3,3,1,1,1,landmark7B,1,correct,notHub,withinComm,1,correctSP,67.99399868,0.0,0.0,7,-0.034274482,-0.018756755,-0.014732453000000001,0.850642166,0.495848697,-0.004774701,-0.063217407,-0.054774174,0.850642166,0.495848697,-0.063774264,0.025703897000000003,0.025309269,0.850642166,0.495848697,k,a,0.20760120724999997,-0.2187454285,-0.058793636,0.892866175,0.9327770459999999
133,33,4,4,1,3,cue15,103.89078020000001,-76.10921978,correct,0.42017601600000004,41.5,-0.420112563,2689.118,2717.5679999999998,28.45000005,2687.808,2689.118,DOWN_SELECTION,103.89078020000001,1.30999994,8,within,1,2,1,1,3,landmark3B,1,correct,hub,hub,1,correctSP,41.92011256,0.0,0.0,1,0.204961682,-0.16677029599999998,0.030566776,0.934778696,0.586683008,0.229312627,-0.17747402199999998,0.029629854,0.934778696,0.586683008,0.180610737,-0.15606656900000002,0.031503697000000004,0.934778696,0.586683008,a,c,0.20456592224999998,0.112804136,-0.013553703499999998,0.9103929270000001,0.8987649240000001
134,34,4,5,3,15,cue3,-25.46270111,154.5372989,correct,2.017044643,54.9,1.441359148,2729.248,2771.278,42.03000021,2724.548,2729.248,UP_SELECTION,154.5372989,4.69999981,8,across,2,2,3,3,12,landmark2B,1,correct,notHub,withinComm,1,correctSP,53.45864085,0.026962136,2.696213605,3,0.294219154,-0.22030334199999999,-0.156551002,0.9112690109999999,0.663241037,0.212811494,-0.285523979,-0.18945557300000002,0.9112690109999999,0.663241037,0.375626814,-0.15508270400000002,-0.123646431,0.9112690109999999,0.663241037,c,o,0.26845406825,-0.2347504025,-0.051095334500000006,0.960101448,0.868768137
135,35,4,6,15,10,cue4,-43.64169504,136.358305,tooLong,0.395229891,193.35,118.8979152,2781.008,2920.008,139.0,2778.248,2781.008,UP_SELECTION,136.358305,2.75999999,8,across,2,3,2,2,9,landmark4B,1,correct,notHub,withinComm,0,correctNonSP,74.45208477,1.596972276,159.6972276,12,0.072337964,-0.11224113699999999,0.013101699999999999,0.9355272029999999,0.7767152140000001,0.11784607400000001,-0.175294443,0.013984792,0.9355272029999999,0.7767152140000001,0.026829855,-0.04918783,0.012218608999999998,0.9355272029999999,0.7767152140000001,o,j,0.136575906,-0.077177368,0.10486700800000001,0.9181397090000001,0.874078923
136,36,4,7,10,13,cue14,203.359465,23.35946499,tooLong,2.301105893,85.4,10.90438137,2928.948,2981.452,52.50399995,2926.968,2928.948,UP_SELECTION,23.35946499,1.98000001,8,across,3,3,3,3,3,landmark3B,1,correct,hub,hub,0,correctSP,74.49561863,0.146376144,14.63761436,9,0.21659373,-0.071809095,0.030566776,0.9686012140000001,0.637361822,0.179229887,-0.057558252000000004,0.029629854,0.9686012140000001,0.637361822,0.253957572,-0.086059938,0.031503697000000004,0.9686012140000001,0.637361822,j,m,-0.08088226700000001,-0.048169846,0.034255369499999994,0.9320254170000001,0.8483814590000001
137,37,4,8,13,7,cue6,93.56578328,-86.43421672,tooLong,1.677037011,81.9,29.02291367,2991.498,3081.092,89.59400009999999,2988.4390000000003,2991.498,DOWN_SELECTION,93.56578328,3.05899978,8,across,3,3,2,2,6,landmark5B,1,correct,notHub,inbetween,0,correctNonSP,52.87708633,0.548875055,54.88750552,3,0.339171595,-0.22030334199999999,-0.070620949,0.923530838,0.708810268,0.35477431200000004,-0.285523979,-0.079857352,0.923530838,0.708810268,0.323568878,-0.15508270400000002,-0.061384546,0.923530838,0.708810268,m,g,0.37733921324999997,-0.254818188,-0.14234357450000001,0.8708441020000001,0.897202618
138,38,4,9,7,9,cue22,32.57951117,212.57951119999998,correct,1.793288844,43.2,1.7934737369999998,3088.619,3105.7990000000004,17.18000006,3088.079,3088.619,DOWN_SELECTION,212.57951119999998,0.53999996,8,within,1,2,2,2,8,landmark11B,1,correct,notHub,withinComm,1,correctSP,41.40652626,0.043313794,4.331379372,6,0.092976956,0.014188646000000001,0.00467203,0.907457312,0.7673253609999999,0.066140241,-0.020482188999999998,0.000987863,0.907457312,0.7673253609999999,0.11981367,0.048859480999999996,0.008356196,0.907457312,0.7673253609999999,g,i,0.18310801275,-0.12972963799999998,-0.049224031,0.940471354,0.8423379529999999
139,39,4,10,9,2,cue17,234.6038329,54.60383286,correct,0.209276485,89.3,0.389009347,3113.8779999999997,3167.3979999999997,53.51999998,3112.759,3113.8779999999997,DOWN_SELECTION,234.6038329,1.11899996,8,across,3,4,1,1,2,landmark10B,1,correct,notHub,withinComm,1,correctSP,88.91099065,0.004375267,0.43752672600000003,8,0.253941106,0.00023052400000000002,0.061486053,0.9491335999999999,0.6683048979999999,0.251021974,-0.09575647,0.016840513,0.9491335999999999,0.6683048979999999,0.256860239,0.096217518,0.106131592,0.9491335999999999,0.6683048979999999,i,b,0.008639181750000002,-0.1577820985,-0.074909328,0.85338002,0.868247311
140,40,5,1,2,4,cue9,76.50304961,256.5030496,correct,3.1418236410000002,44.6,-3.128264797,3203.619,3219.1090000000004,15.49000001,3200.7490000000003,3203.619,DOWN_SELECTION,256.5030496,2.86999989,8,within,1,2,1,1,4,landmark1B,1,correct,notHub,inbetween,1,correctSP,47.7282648,0.0,0.0,2,0.477270804,0.08571670699999999,0.050435543,0.9350767059999999,0.791357086,0.5330262339999999,0.047889540999999994,0.043406018,0.9350767059999999,0.791357086,0.421515374,0.12354387300000001,0.057465068,0.9350767059999999,0.791357086,b,d,0.082916074,-0.228971475,0.08720552749999999,0.901289525,0.921019716
141,41,5,2,4,8,cue10,268.7228977,88.72289775,correct,0.07075039400000001,52.3,3.8314535910000003,3230.4190000000003,3271.0690000000004,40.6500001,3226.1020000000003,3230.4190000000003,UP_SELECTION,88.72289775,4.31699991,8,across,2,3,2,2,7,landmark13B,1,correct,hub,hub,1,correctSP,48.46854641,0.079050309,7.905030942000001,4,0.41008436600000003,0.070714844,0.065475358,0.9378685929999999,0.67701736,0.488582191,0.05501148,0.06825511299999999,0.9378685929999999,0.67701736,0.331586541,0.08641820800000001,0.062695602,0.9378685929999999,0.67701736,d,h,0.432618057,-0.0143496625,0.08774921899999999,0.91337547,0.896337602
142,42,5,3,8,6,cue19,-19.43265935,160.5673406,correct,0.033275925,40.6,-0.033274062,3279.862,3332.159,52.29699993,3278.0490000000004,3279.862,DOWN_SELECTION,-19.43265935,1.81299997,8,within,1,2,2,2,5,landmark15B,1,correct,hub,hub,1,correctSP,40.63327406,0.0,0.0,7,0.280305158,-0.018756755,-0.073213919,0.924439094,0.496880971,0.403697508,-0.063217407,-0.110034605,0.924439094,0.496880971,0.15691280900000001,0.025703897000000003,-0.036393233,0.924439094,0.496880971,h,f,0.57376085025,0.053715991500000004,-0.0199230225,0.881141596,0.9684761740000001
143,44,5,5,14,12,cue8,-16.27368179,163.72631819999998,correct,0.824865703,49.8,3.024850085,3430.579,3533.1490000000003,102.56999990000001,3419.298,3430.579,DOWN_SELECTION,163.72631819999998,11.280999900000001,8,within,1,2,3,3,10,landmark8B,1,correct,notHub,inbetween,1,correctSP,46.77514992,0.064667886,6.466788648,11,-0.045301155999999995,-0.309548612,0.092379677,0.906913138,0.546796407,0.00910624,-0.34189347299999995,0.070719714,0.906913138,0.546796407,-0.09970855199999999,-0.27720375,0.11403964,0.906913138,0.546796407,n,l,0.181642141,-0.106959882,0.090382391,0.896683838,0.7937197709999999
144,45,5,6,12,5,cue13,150.8688957,-29.13110427,tooLong,2.251388397,69.1,15.12154144,3541.4809999999998,3597.1490000000003,55.66799998,3540.119,3541.4809999999998,UP_SELECTION,-29.13110427,1.36199999,8,across,3,3,1,1,5,landmark15B,1,correct,hub,hub,0,correctSP,53.97845856,0.280140297,28.01402975,10,0.012642287,-0.147019069,-0.073213919,0.897271468,0.511317864,-0.052095788,-0.14074004,-0.110034605,0.897271468,0.511317864,0.077380361,-0.153298098,-0.036393233,0.897271468,0.511317864,l,e,0.3349744005,-0.029743247,-0.03393316699999999,0.919672142,0.746010588
145,46,5,7,5,11,cue5,205.09151169999998,25.09151166,correct,0.064347869,49.6,3.975584376,3605.87,3691.219,85.34899998,3604.134,3605.87,DOWN_SELECTION,205.09151169999998,1.73600006,8,across,3,2,3,3,7,landmark13B,1,correct,hub,hub,1,correctSP,45.62441562,0.08713721199999999,8.7137212,5,0.280305158,0.020049789,0.065475358,0.924439094,0.496880971,0.403697508,-0.003607748,0.06825511299999999,0.924439094,0.496880971,0.15691280900000001,0.043707325,0.062695602,0.924439094,0.496880971,e,k,0.142772244,0.059613622500000005,0.0335641995,0.920742325,0.916407359
146,47,5,8,11,1,cue12,194.6042511,14.60425105,tooLong,0.794322128,85.4,17.40600132,3699.78,3752.13,52.35000014,3698.2,3699.78,UP_SELECTION,14.60425105,1.57999992,8,across,3,3,1,1,1,landmark7B,1,correct,notHub,withinComm,0,correctSP,67.99399868,0.25599320000000003,25.59932002,7,-0.034274482,-0.018756755,-0.014732453000000001,0.850642166,0.495848697,-0.004774701,-0.063217407,-0.054774174,0.850642166,0.495848697,-0.063774264,0.025703897000000003,0.025309269,0.850642166,0.495848697,k,a,0.20760120724999997,-0.2187454285,-0.058793636,0.892866175,0.9327770459999999
147,48,5,9,1,3,cue15,103.89078020000001,-76.10921978,correct,1.11959014,40.8,-1.120112563,3761.16,3780.49,19.32999992,3759.11,3761.16,DOWN_SELECTION,-76.10921978,2.04999996,8,within,1,2,1,1,3,landmark3B,1,correct,hub,hub,1,correctSP,41.92011256,0.0,0.0,1,0.204961682,-0.16677029599999998,0.030566776,0.934778696,0.586683008,0.229312627,-0.17747402199999998,0.029629854,0.934778696,0.586683008,0.180610737,-0.15606656900000002,0.031503697000000004,0.934778696,0.586683008,a,c,0.20456592224999998,0.112804136,-0.013553703499999998,0.9103929270000001,0.8987649240000001
148,50,6,1,7,1,cue12,32.57951117,212.57951119999998,correct,2.498326041,45.1,-2.481456959,3912.58,3934.31,21.73000002,3911.28,3912.58,UP_SELECTION,32.57951117,1.29999995,8,across,2,2,1,1,1,landmark7B,1,correct,notHub,withinComm,1,correctSP,47.58145696,0.0,0.0,6,0.122647011,0.014188646000000001,-0.014732453000000001,0.9393863020000001,0.807118412,0.123470612,-0.020482188999999998,-0.054774174,0.9393863020000001,0.807118412,0.12182341,0.048859480999999996,0.025309269,0.9393863020000001,0.807118412,g,a,0.09854502000000001,-0.12972963799999998,-0.058793636,0.9176446340000001,0.954871701
149,51,6,2,1,11,cue5,103.89078020000001,-76.10921978,tooLong,0.20568224699999998,89.2,22.12680132,3942.12,4017.76,75.63999987,3941.313,3942.12,DOWN_SELECTION,103.89078020000001,0.80700016,8,across,3,3,3,3,7,landmark13B,1,correct,hub,hub,0,correctNonSP,67.07319868,0.329890355,32.98903549,1,-0.034274482,-0.16677029599999998,0.065475358,0.850642166,0.495848697,-0.004774701,-0.17747402199999998,0.06825511299999999,0.850642166,0.495848697,-0.063774264,-0.15606656900000002,0.062695602,0.850642166,0.495848697,a,k,0.20760120724999997,0.112804136,0.0335641995,0.892866175,0.9327770459999999
150,52,6,3,11,5,cue13,194.6042511,14.60425105,correct,1.942561014,44.6,-1.945215624,4025.99,4052.62,26.63000011,4024.75,4025.99,DOWN_SELECTION,14.60425105,1.24000001,8,across,3,2,1,1,5,landmark15B,1,correct,hub,hub,1,correctSP,46.54521562,0.0,0.0,7,0.280305158,-0.018756755,-0.073213919,0.924439094,0.496880971,0.403697508,-0.063217407,-0.110034605,0.924439094,0.496880971,0.15691280900000001,0.025703897000000003,-0.036393233,0.924439094,0.496880971,k,e,0.142772244,-0.2187454285,-0.03393316699999999,0.920742325,0.916407359
151,53,6,4,5,12,cue8,205.09151169999998,25.09151166,tooLong,1.338690367,64.7,11.64244144,4061.05,4122.954000000001,61.90400005,4059.57,4061.05,DOWN_SELECTION,205.09151169999998,1.48000002,8,across,2,3,3,3,10,landmark8B,1,correct,notHub,inbetween,0,correctSP,53.05755856,0.219430403,21.94304026,5,0.012642287,0.020049789,0.092379677,0.897271468,0.511317864,-0.052095788,-0.003607748,0.070719714,0.897271468,0.511317864,0.077380361,0.043707325,0.11403964,0.897271468,0.511317864,e,l,0.3349744005,0.059613622500000005,0.090382391,0.919672142,0.746010588
152,54,6,5,12,14,cue21,150.8688957,-29.13110427,correct,1.57455203,45.2,-1.575149915,4136.31,4165.9,29.59000016,4129.911,4136.31,DOWN_SELECTION,-29.13110427,6.39899993,8,within,1,2,3,3,11,landmark18B,1,correct,notHub,withinComm,1,correctSP,46.77514992,0.0,0.0,10,-0.045301155999999995,-0.147019069,-0.201677601,0.906913138,0.546796407,0.00910624,-0.14074004,-0.215549811,0.906913138,0.546796407,-0.09970855199999999,-0.153298098,-0.18780539,0.906913138,0.546796407,l,n,0.181642141,-0.029743247,0.0441683295,0.896683838,0.7937197709999999
153,55,6,6,14,6,cue19,-16.27368179,163.72631819999998,tooLong,0.07286803900000001,82.7,14.047643099999998,4174.383,4255.441,81.05800008,4172.880999999999,4174.383,DOWN_SELECTION,-16.27368179,1.50199986,8,across,3,3,2,2,5,landmark15B,1,correct,hub,hub,0,correctSP,68.6523569,0.204619968,20.46199684,11,0.268691608,-0.309548612,-0.073213919,0.8930605209999999,0.5736922870000001,0.36610392700000005,-0.34189347299999995,-0.110034605,0.8930605209999999,0.5736922870000001,0.17127928899999997,-0.27720375,-0.036393233,0.8930605209999999,0.5736922870000001,n,f,0.4343047685,-0.106959882,-0.0199230225,0.91576294,0.873360714
154,56,6,7,6,9,cue22,72.37272871,252.3727287,correct,3.2353855869999997,46.6,-3.2371896739999997,4263.8009999999995,4296.463,32.66199994,4262.420999999999,4263.8009999999995,DOWN_SELECTION,252.3727287,1.38000012,8,within,1,2,2,2,8,landmark11B,1,correct,notHub,withinComm,1,correctSP,49.83718967,0.0,0.0,5,0.148046478,0.020049789,0.00467203,0.897682277,0.6855616920000001,0.135179572,-0.003607748,0.000987863,0.897682277,0.6855616920000001,0.160913385,0.043707325,0.008356196,0.897682277,0.6855616920000001,f,i,0.167734708,0.025519695,-0.049224031,0.894194065,0.8177987940000001
155,57,6,8,9,2,cue17,234.6038329,54.60383286,tooLong,2.449943649,104.6,15.68900935,4304.46,4348.924,44.46399998,4303.431,4304.46,DOWN_SELECTION,54.60383286,1.02900005,8,across,3,4,1,1,2,landmark10B,1,correct,notHub,withinComm,0,correctSP,88.91099065,0.17645748,17.64574799,8,0.253941106,0.00023052400000000002,0.061486053,0.9491335999999999,0.6683048979999999,0.251021974,-0.09575647,0.016840513,0.9491335999999999,0.6683048979999999,0.256860239,0.096217518,0.106131592,0.9491335999999999,0.6683048979999999,i,b,0.008639181750000002,-0.1577820985,-0.074909328,0.85338002,0.868247311
156,58,6,9,2,4,cue9,76.50304961,256.5030496,correct,2.8275637760000003,44.9,-2.8282647969999997,4358.541,4377.981,19.43999982,4355.861,4358.541,UP_SELECTION,256.5030496,2.68000007,8,within,1,2,1,1,4,landmark1B,1,correct,notHub,inbetween,1,correctSP,47.7282648,0.0,0.0,2,0.477270804,0.08571670699999999,0.050435543,0.9350767059999999,0.791357086,0.5330262339999999,0.047889540999999994,0.043406018,0.9350767059999999,0.791357086,0.421515374,0.12354387300000001,0.057465068,0.9350767059999999,0.791357086,b,d,0.082916074,-0.228971475,0.08720552749999999,0.901289525,0.921019716
157,59,6,10,4,8,cue10,268.7228977,88.72289775,correct,0.5292768379999999,52.9,4.431453591,4387.090999999999,4424.141,37.04999995,4384.945,4387.090999999999,UP_SELECTION,88.72289775,2.14600015,8,across,2,3,2,2,7,landmark13B,1,correct,hub,hub,1,correctSP,48.46854641,0.091429472,9.142947167,4,0.41008436600000003,0.070714844,0.065475358,0.9378685929999999,0.67701736,0.488582191,0.05501148,0.06825511299999999,0.9378685929999999,0.67701736,0.331586541,0.08641820800000001,0.062695602,0.9378685929999999,0.67701736,d,h,0.432618057,-0.0143496625,0.08774921899999999,0.91337547,0.896337602
158,60,7,1,8,10,cue4,-19.43265935,160.5673406,correct,0.886684556,42.05,-0.834320155,4735.492,4767.092000000001,31.59999991,4714.152,4735.492,DOWN_SELECTION,160.5673406,21.34000015,8,within,1,2,2,2,9,landmark4B,1,correct,notHub,withinComm,1,correctSP,42.88432016,0.0,0.0,7,0.028489069,-0.018756755,0.013101699999999999,0.939366714,0.5942872770000001,-0.050909616,-0.063217407,0.013984792,0.939366714,0.5942872770000001,0.107887753,0.025703897000000003,0.012218608999999998,0.939366714,0.5942872770000001,h,j,0.12928105925000002,0.053715991500000004,0.10486700800000001,0.94009784,0.895449223
159,61,7,2,10,12,cue8,203.359465,23.35946499,correct,1.473585599,61.2,-1.4735563319999998,4775.871,4816.562,40.69099999,4774.052,4775.871,DOWN_SELECTION,203.359465,1.819,8,across,2,3,3,3,10,landmark8B,1,correct,notHub,inbetween,1,correctSP,62.67355633,0.0,0.0,9,0.23628623199999998,-0.071809095,0.092379677,0.923145232,0.462799817,0.258071061,-0.057558252000000004,0.070719714,0.923145232,0.462799817,0.21450140399999998,-0.086059938,0.11403964,0.923145232,0.462799817,j,l,0.15694256025000003,-0.048169846,0.090382391,0.881085958,0.699294662
160,62,7,3,12,5,cue13,150.8688957,-29.13110427,tooLong,2.247267262,76.15,22.17154144,4848.272,4899.162,50.88999987,4823.545999999999,4848.272,UP_SELECTION,-29.13110427,24.72600007,8,across,3,3,1,1,5,landmark15B,1,correct,hub,hub,0,correctNonSP,53.97845856,0.41074795399999997,41.07479544,10,0.012642287,-0.147019069,-0.073213919,0.897271468,0.511317864,-0.052095788,-0.14074004,-0.110034605,0.897271468,0.511317864,0.077380361,-0.153298098,-0.036393233,0.897271468,0.511317864,l,e,0.3349744005,-0.029743247,-0.03393316699999999,0.919672142,0.746010588
161,63,7,4,5,9,cue22,205.09151169999998,25.09151166,tooLong,1.820106182,69.55,9.234014853,4907.292,4968.513,61.22099995,4906.142,4907.292,DOWN_SELECTION,205.09151169999998,1.1500001,8,across,2,2,2,2,8,landmark11B,1,correct,notHub,withinComm,0,correctSP,60.31598515,0.15309399,15.30939904,5,0.148046478,0.020049789,0.00467203,0.897682277,0.6855616920000001,0.135179572,-0.003607748,0.000987863,0.897682277,0.6855616920000001,0.160913385,0.043707325,0.008356196,0.897682277,0.6855616920000001,e,i,0.24383703275000002,0.059613622500000005,-0.049224031,0.8835275220000001,0.806229227
162,64,7,5,9,7,cue6,234.6038329,54.60383286,correct,2.006015432,39.4,-2.006526263,4976.861,4999.516,22.65499997,4975.454000000001,4976.861,DOWN_SELECTION,234.6038329,1.40700006,8,within,1,2,2,2,6,landmark5B,1,correct,notHub,inbetween,1,correctSP,41.40652626,0.0,0.0,8,0.092976956,0.00023052400000000002,-0.070620949,0.907457312,0.7673253609999999,0.066140241,-0.09575647,-0.079857352,0.907457312,0.7673253609999999,0.11981367,0.096217518,-0.061384546,0.907457312,0.7673253609999999,i,g,0.18310801275,-0.1577820985,-0.14234357450000001,0.940471354,0.8423379529999999
163,65,7,6,7,4,cue9,32.57951117,212.57951119999998,correct,1.411715854,33.0,4.3295623,5012.952,5029.724,16.77200008,5006.463,5012.952,UP_SELECTION,32.57951117,6.48899984,8,across,2,2,1,1,4,landmark1B,1,correct,notHub,inbetween,1,correctSP,28.670437699999997,0.151011378,15.10113778,6,0.609262167,0.014188646000000001,0.050435543,0.9404448540000001,0.799784154,0.677156671,-0.020482188999999998,0.043406018,0.9404448540000001,0.799784154,0.541367664,0.048859480999999996,0.057465068,0.9404448540000001,0.799784154,g,d,0.2875680525,-0.12972963799999998,0.08720552749999999,0.894120307,0.8499472220000001
164,66,7,7,4,2,cue17,268.7228977,88.72289775,correct,0.121752874,47.85,0.12173520300000001,5040.433,5057.306,16.872999899999996,5036.733,5040.433,UP_SELECTION,268.7228977,3.70000005,8,within,1,2,1,1,2,landmark10B,1,correct,notHub,withinComm,1,correctSP,47.7282648,0.002550589,0.25505893399999996,4,0.477270804,0.070714844,0.061486053,0.9350767059999999,0.791357086,0.5330262339999999,0.05501148,0.016840513,0.9350767059999999,0.791357086,0.421515374,0.08641820800000001,0.106131592,0.9350767059999999,0.791357086,d,b,0.082916074,-0.0143496625,-0.074909328,0.901289525,0.921019716
165,69,7,10,3,1,cue12,-25.46270111,154.5372989,correct,0.7701620690000001,41.15,-0.770112563,5165.123,5179.884,14.76100015,5156.773,5165.123,UP_SELECTION,-25.46270111,8.34999991,8,within,1,2,1,1,1,landmark7B,1,correct,notHub,withinComm,1,correctSP,41.92011256,0.0,0.0,3,0.204961682,-0.22030334199999999,-0.014732453000000001,0.934778696,0.586683008,0.229312627,-0.285523979,-0.054774174,0.934778696,0.586683008,0.180610737,-0.15508270400000002,0.025309269,0.934778696,0.586683008,c,a,0.20456592225,-0.2347504025,-0.058793636,0.9103929270000001,0.8987649240000001
166,31,4,2,6,14,cue2,81.60531328,261.6053133,tooLong,2.69185352,89.3,20.48583247,2088.025,2139.895,51.87000012,2085.583,2088.025,UP_SELECTION,81.60531328,2.44199992,9,across,3,3,3,1,11,landmark4B,1,correct,notHub,withinComm,0,correctNonSP,68.81416753,0.29769789,29.76978899,5,0.16927097100000002,-0.207929465,-0.020294006,0.9154722890000001,0.8572163629999999,0.10595705,-0.24879020100000002,-0.00617057,0.9154722890000001,0.8572163629999999,0.23258489300000001,-0.167068728,-0.034417442,0.9154722890000001,0.8572163629999999,f,n,0.08206885275,0.041969875,0.0330171765,0.913704293,0.9767970090000001
167,32,4,3,14,2,cue10,-12.39719272,167.6028073,correct,0.908165825,54.9,3.4519079410000004,2149.5860000000002,2190.475,40.88899993,2146.877,2149.5860000000002,UP_SELECTION,-12.39719272,2.70900011,9,across,2,2,1,2,2,landmark15B,1,correct,notHub,withinComm,1,correctSP,51.44809206,0.067094965,6.70949651,11,0.050807807,0.016269475,-0.102457505,0.91177779,0.68003512,0.069516968,0.013745829,-0.080468971,0.91177779,0.68003512,0.032098646,0.01879312,-0.12444604,0.91177779,0.68003512,n,b,0.124868268,0.08990121699999999,-0.070494961,0.93005701,0.633019883
168,33,4,4,2,7,cue21,72.74861673,252.74861669999999,incorrect,4.209127649,64.0,-2.089383316,2201.205,2254.865,53.66000009,2197.425,2201.205,DOWN_SELECTION,252.74861669999999,3.77999997,9,across,2,3,2,3,6,landmark12B,1,correct,notHub,inbetween,0,correctSP,66.08938332,0.0,0.0,2,-0.007225805,-0.03560622,0.07260103400000001,0.8945041109999999,0.5119967870000001,0.017799968,-0.066620782,0.089473927,0.8945041109999999,0.5119967870000001,-0.032251577999999996,-0.004591658,0.055728140999999995,0.8945041109999999,0.5119967870000001,b,g,0.09403298275,0.08673811399999999,0.05417568999999999,0.9602291620000001,0.898118449
169,34,4,5,7,3,cue16,35.15346303,215.153463,correct,0.264584439,55.4,3.9671452489999997,2272.705,2299.395,26.69000006,2268.315,2272.705,UP_SELECTION,35.15346303,4.38999986,9,across,3,3,1,2,3,landmark6B,1,correct,hub,hub,1,correctSP,51.43285475,0.077132511,7.713251128,6,0.143614775,-0.034111722000000004,0.139494666,0.872486407,0.680531125,0.209598855,-0.010142665,0.138119367,0.872486407,0.680531125,0.077630695,-0.058080779000000006,0.140869965,0.872486407,0.680531125,g,c,0.1566265085,0.040642365,0.030643450500000002,0.963342625,0.8616427409999999
